time,acc_x,acc_y,acc_z
14:28:00.002,0.58105,-0.78027,-0.16455;
14:28:00.022,0.53857,-0.91357,0.11475;
14:28:00.042,0.55908,-1.06128,0.22632;
14:28:00.062,0.63452,-1.06226,0.04712;
14:28:00.082,0.69824,-1.03979,-0.23682;
14:28:00.102,0.72656,-1.09082,-0.37207;
14:28:00.122,0.75610,-1.20239,-0.32837;
14:28:00.142,0.73218,-1.06055,-0.13623;
14:28:00.162,0.69946,-0.84888,0.16724;
14:28:00.182,0.64209,-0.68701,0.31934;
14:28:00.202,0.57739,-0.63965,0.28076;
14:28:00.222,0.54004,-0.73755,0.20679;
14:28:00.242,0.55981,-0.76025,0.15015;
14:28:00.262,0.56128,-0.70459,0.11987;
14:28:00.282,0.47827,-0.77612,0.11328;
14:28:00.302,0.45239,-0.85645,0.10303;
14:28:00.322,0.61816,-0.72559,0.05396;
14:28:00.342,0.58472,-0.73096,0.09033;
14:28:00.362,0.54492,-0.75024,0.14990;
14:28:00.382,0.52832,-0.82983,0.19507;
14:28:00.402,0.54785,-0.86353,0.22778;
14:28:00.422,0.58838,-0.81274,0.22021;
14:28:00.442,0.59814,-0.75659,0.19922;
14:28:00.462,0.57593,-0.69727,0.24243;
14:28:00.482,0.58691,-0.70361,0.34546;
14:28:00.502,0.58301,-0.74829,0.37354;
14:28:00.522,0.55859,-0.78369,0.31885;
14:28:00.542,0.53052,-0.78149,0.30322;
14:28:00.562,0.51929,-0.82300,0.33594;
14:28:00.582,0.52002,-0.81812,0.34155;
14:28:00.602,0.50781,-0.76733,0.31152;
14:28:00.622,0.51001,-0.72290,0.28809;
14:28:00.642,0.53345,-0.69897,0.29395;
14:28:00.662,0.55835,-0.69092,0.31421;
14:28:00.682,0.57837,-0.71118,0.32764;
14:28:00.702,0.59961,-0.73315,0.33667;
14:28:00.722,0.60571,-0.75024,0.33545;
14:28:00.742,0.59082,-0.77563,0.33301;
14:28:00.762,0.55713,-0.77075,0.34351;
14:28:00.782,0.53198,-0.68091,0.37769;
14:28:00.802,0.54688,-0.63354,0.34863;
14:28:00.822,0.55566,-0.67798,0.28589;
14:28:00.842,0.56348,-0.75659,0.21265;
14:28:00.862,0.58105,-0.80029,0.21851;
14:28:00.882,0.59546,-0.78955,0.29175;
14:28:00.902,0.60083,-0.76709,0.35034;
14:28:00.922,0.61133,-0.76050,0.32056;
14:28:00.942,0.59937,-0.78149,0.18213;
14:28:00.962,0.56812,-0.79541,0.11987;
14:28:00.982,0.56812,-0.78198,0.15649;
14:28:01.002,0.59546,-0.80762,0.14722;
14:28:01.022,0.63721,-0.76563,0.14941;
14:28:01.042,0.63794,-0.70190,0.19946;
14:28:01.062,0.60596,-0.70532,0.29224;
14:28:01.082,0.60352,-0.64941,0.37915;
14:28:01.102,0.61938,-0.60303,0.41138;
14:28:01.122,0.59448,-0.67065,0.35498;
14:28:01.142,0.55322,-0.73926,0.32666;
14:28:01.162,0.56738,-0.72485,0.38354;
14:28:01.182,0.61426,-0.65723,0.40771;
14:28:01.202,0.64136,-0.57300,0.41553;
14:28:01.222,0.61157,-0.50879,0.43994;
14:28:01.242,0.54565,-0.55127,0.47583;
14:28:01.262,0.51904,-0.68140,0.54346;
14:28:01.282,0.63647,-0.70581,0.46143;
14:28:01.302,0.66528,-0.70483,0.37500;
14:28:01.322,0.62256,-0.70605,0.36035;
14:28:01.342,0.59814,-0.69629,0.40234;
14:28:01.362,0.59546,-0.67041,0.43311;
14:28:01.382,0.58032,-0.66870,0.41992;
14:28:01.402,0.57788,-0.71973,0.42358;
14:28:01.422,0.59814,-0.74048,0.41113;
14:28:01.442,0.60474,-0.74072,0.37622;
14:28:01.462,0.58130,-0.67505,0.32764;
14:28:01.482,0.56787,-0.64893,0.27075;
14:28:01.502,0.55908,-0.68213,0.29395;
14:28:01.522,0.56519,-0.68945,0.37329;
14:28:01.542,0.60083,-0.69531,0.40869;
14:28:01.562,0.61133,-0.70874,0.38818;
14:28:01.582,0.59473,-0.73364,0.34082;
14:28:01.602,0.59131,-0.74927,0.31055;
14:28:01.622,0.59399,-0.75073,0.32104;
14:28:01.642,0.58691,-0.73462,0.34058;
14:28:01.662,0.57153,-0.71875,0.36353;
14:28:01.682,0.55591,-0.68945,0.36914;
14:28:01.702,0.55518,-0.67969,0.34082;
14:28:01.722,0.55786,-0.69897,0.33032;
14:28:01.742,0.55981,-0.71875,0.33936;
14:28:01.762,0.59277,-0.72559,0.32886;
14:28:01.782,0.61743,-0.72583,0.31982;
14:28:01.802,0.62524,-0.72632,0.31445;
14:28:01.822,0.62451,-0.73267,0.31274;
14:28:01.842,0.61743,-0.73584,0.31885;
14:28:01.862,0.60327,-0.72827,0.32666;
14:28:01.882,0.58252,-0.71802,0.33447;
14:28:01.902,0.56714,-0.71021,0.35327;
14:28:01.922,0.57056,-0.70874,0.36572;
14:28:01.942,0.57666,-0.71094,0.35425;
14:28:01.962,0.57861,-0.71875,0.33350;
14:28:01.982,0.57788,-0.71436,0.31982;
14:28:02.002,0.57593,-0.70947,0.32471;
14:28:02.022,0.57910,-0.71118,0.34814;
14:28:02.042,0.58911,-0.71484,0.36621;
14:28:02.062,0.59448,-0.72241,0.35278;
14:28:02.082,0.59814,-0.73071,0.34058;
14:28:02.102,0.59326,-0.72803,0.34180;
14:28:02.122,0.58618,-0.71899,0.33936;
14:28:02.142,0.58423,-0.70703,0.32080;
14:28:02.162,0.57935,-0.70508,0.30859;
14:28:02.182,0.57251,-0.71509,0.31641;
14:28:02.202,0.57129,-0.72632,0.32544;
14:28:02.222,0.58447,-0.73120,0.32788;
14:28:02.242,0.59399,-0.72656,0.32080;
14:28:02.262,0.59790,-0.72778,0.31152;
14:28:02.282,0.58325,-0.71313,0.37720;
14:28:02.302,0.58496,-0.71069,0.37476;
14:28:02.322,0.58594,-0.70947,0.35449;
14:28:02.342,0.58105,-0.71460,0.34155;
14:28:02.362,0.58032,-0.71338,0.34814;
14:28:02.382,0.58545,-0.70532,0.36206;
14:28:02.402,0.59521,-0.70044,0.37036;
14:28:02.422,0.59961,-0.70190,0.34912;
14:28:02.442,0.59912,-0.71436,0.32324;
14:28:02.462,0.59595,-0.72388,0.32227;
14:28:02.482,0.58936,-0.71899,0.34082;
14:28:02.502,0.58325,-0.71069,0.35986;
14:28:02.522,0.58447,-0.70020,0.36255;
14:28:02.542,0.58960,-0.69458,0.35498;
14:28:02.562,0.59155,-0.70459,0.34351;
14:28:02.582,0.58911,-0.71704,0.33911;
14:28:02.602,0.58203,-0.72632,0.35034;
14:28:02.622,0.58447,-0.73071,0.36133;
14:28:02.642,0.58667,-0.72266,0.36108;
14:28:02.662,0.58716,-0.70703,0.34180;
14:28:02.682,0.58496,-0.70093,0.33374;
14:28:02.702,0.58228,-0.70605,0.34448;
14:28:02.722,0.59741,-0.70532,0.34424;
14:28:02.742,0.58765,-0.70947,0.36841;
14:28:02.762,0.59033,-0.70947,0.37183;
14:28:02.782,0.59375,-0.70264,0.35889;
14:28:02.802,0.59570,-0.70532,0.33594;
14:28:02.822,0.58936,-0.71240,0.33936;
14:28:02.842,0.58374,-0.70850,0.36206;
14:28:02.862,0.58667,-0.71045,0.37354;
14:28:02.882,0.59302,-0.70947,0.36475;
14:28:02.902,0.59399,-0.71338,0.34497;
14:28:02.922,0.58911,-0.71948,0.34253;
14:28:02.942,0.58594,-0.71509,0.35205;
14:28:02.962,0.58447,-0.70972,0.35498;
14:28:02.982,0.58374,-0.70679,0.34668;
14:28:03.002,0.58179,-0.71313,0.33496;
14:28:03.022,0.58228,-0.72412,0.33887;
14:28:03.042,0.58643,-0.72705,0.35205;
14:28:03.062,0.59375,-0.71216,0.35596;
14:28:03.082,0.59888,-0.69702,0.35498;
14:28:03.102,0.59424,-0.70020,0.36084;
14:28:03.122,0.59131,-0.70508,0.37158;
14:28:03.142,0.59399,-0.70288,0.37842;
14:28:03.162,0.59180,-0.69873,0.37842;
14:28:03.182,0.58667,-0.70068,0.37720;
14:28:03.202,0.58911,-0.69800,0.36963;
14:28:03.222,0.58545,-0.70215,0.35669;
14:28:03.242,0.58765,-0.70825,0.36304;
14:28:03.262,0.58765,-0.70337,0.37280;
14:28:03.282,0.58740,-0.70020,0.38037;
14:28:03.302,0.59033,-0.69214,0.38770;
14:28:03.322,0.59082,-0.68896,0.39136;
14:28:03.342,0.58472,-0.69141,0.38843;
14:28:03.362,0.57935,-0.69043,0.39673;
14:28:03.382,0.58325,-0.69214,0.39941;
14:28:03.402,0.58765,-0.69897,0.38989;
14:28:03.422,0.59106,-0.70044,0.37817;
14:28:03.442,0.58887,-0.69849,0.37231;
14:28:03.462,0.58374,-0.69897,0.37964;
14:28:03.482,0.58398,-0.69727,0.39014;
14:28:03.502,0.58667,-0.69116,0.38794;
14:28:03.522,0.58691,-0.68994,0.37817;
14:28:03.542,0.58276,-0.69141,0.38086;
14:28:03.562,0.58203,-0.69116,0.39160;
14:28:03.582,0.58765,-0.69214,0.39868;
14:28:03.602,0.59399,-0.69092,0.39233;
14:28:03.622,0.59253,-0.69312,0.37988;
14:28:03.642,0.58765,-0.69556,0.37598;
14:28:03.662,0.58887,-0.69824,0.38135;
14:28:03.682,0.59082,-0.69995,0.38281;
14:28:03.702,0.58252,-0.69678,0.38208;
14:28:03.722,0.58813,-0.70264,0.38379;
14:28:03.742,0.59082,-0.69995,0.37842;
14:28:03.762,0.59277,-0.69702,0.37329;
14:28:03.782,0.59131,-0.69629,0.37183;
14:28:03.802,0.58667,-0.69556,0.37451;
14:28:03.822,0.58423,-0.69971,0.37598;
14:28:03.842,0.58447,-0.69897,0.37646;
14:28:03.862,0.58813,-0.69849,0.37988;
14:28:03.882,0.59058,-0.69751,0.37891;
14:28:03.902,0.59180,-0.70044,0.37891;
14:28:03.922,0.59229,-0.70386,0.37598;
14:28:03.942,0.59106,-0.70044,0.37622;
14:28:03.962,0.59033,-0.69824,0.37866;
14:28:03.982,0.58716,-0.70166,0.37769;
14:28:04.002,0.58691,-0.69678,0.37280;
14:28:04.022,0.58789,-0.69849,0.36865;
14:28:04.042,0.58496,-0.70190,0.37158;
14:28:04.062,0.58398,-0.69995,0.37061;
14:28:04.082,0.58862,-0.70239,0.36890;
14:28:04.102,0.59180,-0.70166,0.36230;
14:28:04.122,0.59229,-0.70752,0.36450;
14:28:04.142,0.59204,-0.71387,0.36255;
14:28:04.162,0.58765,-0.70972,0.35571;
14:28:04.182,0.58862,-0.70508,0.35376;
14:28:04.202,0.59058,-0.70605,0.36401;
14:28:04.222,0.58862,-0.71558,0.36011;
14:28:04.242,0.59082,-0.71606,0.35059;
14:28:04.262,0.59155,-0.71240,0.34790;
14:28:04.282,0.59180,-0.70874,0.35034;
14:28:04.302,0.59033,-0.70483,0.35156;
14:28:04.322,0.58862,-0.70825,0.35596;
14:28:04.342,0.58667,-0.71582,0.35547;
14:28:04.362,0.58838,-0.71191,0.35400;
14:28:04.382,0.58911,-0.71118,0.35181;
14:28:04.402,0.59131,-0.71167,0.35376;
14:28:04.422,0.59082,-0.71167,0.35498;
14:28:04.442,0.58960,-0.71436,0.34888;
14:28:04.462,0.59009,-0.70825,0.35376;
14:28:04.482,0.59204,-0.70605,0.35742;
14:28:04.502,0.59204,-0.71143,0.34619;
14:28:04.522,0.59058,-0.71362,0.34595;
14:28:04.542,0.59155,-0.70996,0.35132;
14:28:04.562,0.59131,-0.71094,0.35205;
14:28:04.582,0.59277,-0.71509,0.35229;
14:28:04.602,0.58936,-0.70923,0.34863;
14:28:04.622,0.58350,-0.70923,0.34448;
14:28:04.642,0.58228,-0.71167,0.34961;
14:28:04.662,0.58911,-0.70752,0.35596;
14:28:04.682,0.59546,-0.71411,0.34692;
14:28:04.702,0.59351,-0.71777,0.34888;
14:28:04.722,0.59009,-0.71899,0.35547;
14:28:04.742,0.58887,-0.71533,0.35571;
14:28:04.762,0.58984,-0.71167,0.34766;
14:28:04.782,0.58887,-0.71191,0.34888;
14:28:04.802,0.58887,-0.71143,0.35400;
14:28:04.822,0.58813,-0.71045,0.35889;
14:28:04.842,0.58960,-0.71045,0.35693;
14:28:04.862,0.59253,-0.70850,0.35083;
14:28:04.882,0.59082,-0.70728,0.34717;
14:28:04.902,0.58911,-0.70703,0.35034;
14:28:04.922,0.59180,-0.70654,0.35132;
14:28:04.942,0.59229,-0.70874,0.34790;
14:28:04.962,0.59375,-0.71558,0.34546;
14:28:04.982,0.59155,-0.71899,0.34863;
14:28:05.002,0.58765,-0.71436,0.35547;
14:28:05.022,0.58813,-0.70435,0.35596;
14:28:05.042,0.59131,-0.70410,0.35718;
14:28:05.062,0.59106,-0.70801,0.36011;
14:28:05.082,0.59033,-0.70654,0.36060;
14:28:05.102,0.58887,-0.70703,0.36328;
14:28:05.122,0.58691,-0.70264,0.36914;
14:28:05.142,0.58936,-0.69702,0.37183;
14:28:05.162,0.59033,-0.69556,0.36572;
14:28:05.182,0.59155,-0.69922,0.36035;
14:28:05.202,0.59351,-0.71069,0.35449;
14:28:05.222,0.59180,-0.71289,0.35620;
14:28:05.242,0.58838,-0.70874,0.36182;
14:28:05.262,0.58887,-0.70215,0.36060;
14:28:05.282,0.59155,-0.70605,0.36255;
14:28:05.302,0.58936,-0.70850,0.35742;
14:28:05.322,0.58813,-0.70801,0.35083;
14:28:05.342,0.58911,-0.70874,0.35864;
14:28:05.362,0.58740,-0.70532,0.36719;
14:28:05.382,0.58887,-0.70117,0.36255;
14:28:05.402,0.59058,-0.70361,0.36255;
14:28:05.422,0.59155,-0.70947,0.35938;
14:28:05.442,0.59229,-0.71069,0.35449;
14:28:05.462,0.59253,-0.70996,0.35791;
14:28:05.482,0.59082,-0.70825,0.36206;
14:28:05.502,0.59033,-0.70117,0.36646;
14:28:05.522,0.59131,-0.69800,0.36548;
14:28:05.542,0.59009,-0.70166,0.36133;
14:28:05.562,0.59155,-0.70825,0.35962;
14:28:05.582,0.59351,-0.70996,0.35815;
14:28:05.602,0.59058,-0.70703,0.36108;
14:28:05.622,0.58984,-0.70386,0.36108;
14:28:05.642,0.58813,-0.70435,0.36230;
14:28:05.662,0.58618,-0.70581,0.36328;
14:28:05.682,0.58618,-0.70386,0.36426;
14:28:05.702,0.58765,-0.70215,0.37109;
14:28:05.722,0.59082,-0.70386,0.36279;
14:28:05.742,0.59106,-0.70850,0.36255;
14:28:05.762,0.59180,-0.70850,0.36694;
14:28:05.782,0.59009,-0.70142,0.36621;
14:28:05.802,0.59009,-0.70386,0.36426;
14:28:05.822,0.58984,-0.70508,0.36377;
14:28:05.842,0.58887,-0.70410,0.36475;
14:28:05.862,0.59106,-0.70361,0.36719;
14:28:05.882,0.59155,-0.70166,0.36987;
14:28:05.902,0.59106,-0.70215,0.37158;
14:28:05.922,0.59106,-0.69946,0.36768;
14:28:05.942,0.59033,-0.70190,0.36182;
14:28:05.962,0.58936,-0.70679,0.36499;
14:28:05.982,0.58838,-0.70752,0.37012;
14:28:06.002,0.59033,-0.70874,0.36621;
14:28:06.022,0.59082,-0.71094,0.36328;
14:28:06.042,0.58813,-0.71143,0.36182;
14:28:06.062,0.58667,-0.70386,0.36157;
14:28:06.082,0.58887,-0.69409,0.36694;
14:28:06.102,0.59326,-0.68945,0.36890;
14:28:06.122,0.59448,-0.69360,0.36499;
14:28:06.142,0.59399,-0.70728,0.36377;
14:28:06.162,0.59277,-0.71509,0.35840;
14:28:06.182,0.59204,-0.71631,0.35815;
14:28:06.202,0.59131,-0.70898,0.36279;
14:28:06.222,0.58960,-0.70020,0.36157;
14:28:06.242,0.58813,-0.70435,0.36597;
14:28:06.262,0.58887,-0.70337,0.36719;
14:28:06.282,0.58911,-0.70386,0.36621;
14:28:06.302,0.59058,-0.70679,0.36133;
14:28:06.322,0.59155,-0.70752,0.35596;
14:28:06.342,0.58984,-0.70776,0.35840;
14:28:06.362,0.59082,-0.71167,0.35864;
14:28:06.382,0.59009,-0.71045,0.36060;
14:28:06.402,0.59033,-0.70386,0.36084;
14:28:06.422,0.59302,-0.70068,0.35571;
14:28:06.442,0.59229,-0.70654,0.35767;
14:28:06.462,0.58960,-0.70679,0.36206;
14:28:06.482,0.59106,-0.70483,0.36133;
14:28:06.502,0.59375,-0.70703,0.35547;
14:28:06.522,0.59229,-0.70728,0.35278;
14:28:06.542,0.59131,-0.70972,0.35693;
14:28:06.562,0.58984,-0.71216,0.35913;
14:28:06.582,0.58862,-0.70898,0.35986;
14:28:06.602,0.58691,-0.69897,0.36230;
14:28:06.622,0.58838,-0.69751,0.36255;
14:28:06.642,0.58936,-0.70313,0.36255;
14:28:06.662,0.59082,-0.70874,0.36157;
14:28:06.682,0.59375,-0.70898,0.36011;
14:28:06.702,0.59277,-0.70557,0.35913;
14:28:06.722,0.59155,-0.70703,0.36060;
14:28:06.742,0.59229,-0.70850,0.35840;
14:28:06.762,0.59131,-0.70972,0.35718;
14:28:06.782,0.59009,-0.70776,0.35693;
14:28:06.802,0.59082,-0.70264,0.36255;
14:28:06.822,0.59204,-0.70288,0.36572;
14:28:06.842,0.59082,-0.70337,0.35889;
14:28:06.862,0.59058,-0.70532,0.35498;
14:28:06.882,0.58765,-0.70825,0.36035;
14:28:06.902,0.58691,-0.70776,0.36646;
14:28:06.922,0.58984,-0.70459,0.36743;
14:28:06.942,0.59106,-0.70703,0.36060;
14:28:06.962,0.59180,-0.71240,0.34985;
14:28:06.982,0.59131,-0.71191,0.35278;
14:28:07.002,0.59180,-0.70630,0.36060;
14:28:07.022,0.59131,-0.70166,0.35889;
14:28:07.042,0.59155,-0.69873,0.35718;
14:28:07.062,0.59253,-0.70239,0.35962;
14:28:07.082,0.59082,-0.70605,0.36182;
14:28:07.102,0.59106,-0.70752,0.35864;
14:28:07.122,0.59009,-0.70752,0.35938;
14:28:07.142,0.58960,-0.70557,0.36133;
14:28:07.162,0.58862,-0.70630,0.36279;
14:28:07.182,0.58813,-0.69971,0.36108;
14:28:07.202,0.58960,-0.70093,0.35718;
14:28:07.222,0.59058,-0.70850,0.35425;
14:28:07.242,0.58691,-0.71631,0.36011;
14:28:07.262,0.58496,-0.71387,0.36963;
14:28:07.282,0.58643,-0.71680,0.36182;
14:28:07.302,0.59326,-0.71973,0.35034;
14:28:07.322,0.59521,-0.71411,0.34180;
14:28:07.342,0.59570,-0.70020,0.35132;
14:28:07.362,0.59448,-0.68921,0.37109;
14:28:07.382,0.59473,-0.69043,0.37720;
14:28:07.402,0.59546,-0.69946,0.37061;
14:28:07.422,0.59375,-0.70850,0.36597;
14:28:07.442,0.59399,-0.70630,0.37109;
14:28:07.462,0.59229,-0.69141,0.37061;
14:28:07.482,0.58984,-0.68481,0.37231;
14:28:07.502,0.58740,-0.69360,0.37183;
14:28:07.522,0.58862,-0.70068,0.37256;
14:28:07.542,0.59229,-0.70166,0.37622;
14:28:07.562,0.59521,-0.69824,0.37354;
14:28:07.582,0.59351,-0.69849,0.36768;
14:28:07.602,0.59155,-0.70532,0.36572;
14:28:07.622,0.59277,-0.70361,0.37207;
14:28:07.642,0.59326,-0.69995,0.37451;
14:28:07.662,0.59082,-0.70166,0.37256;
14:28:07.682,0.58643,-0.69849,0.37329;
14:28:07.702,0.58594,-0.69897,0.37378;
14:28:07.722,0.58716,-0.69141,0.37646;
14:28:07.742,0.58789,-0.69116,0.37866;
14:28:07.762,0.59009,-0.69800,0.37280;
14:28:07.782,0.59131,-0.70215,0.37012;
14:28:07.802,0.59082,-0.70361,0.36914;
14:28:07.822,0.59131,-0.70068,0.36865;
14:28:07.842,0.59180,-0.69678,0.37036;
14:28:07.862,0.59229,-0.70215,0.37109;
14:28:07.882,0.59180,-0.70532,0.37598;
14:28:07.902,0.59326,-0.69922,0.37451;
14:28:07.922,0.59302,-0.69458,0.36890;
14:28:07.942,0.59277,-0.69482,0.36792;
14:28:07.962,0.59253,-0.69727,0.36890;
14:28:07.982,0.59033,-0.70020,0.37036;
14:28:08.002,0.58911,-0.70239,0.36841;
14:28:08.022,0.59033,-0.70386,0.36572;
14:28:08.042,0.59155,-0.70581,0.36621;
14:28:08.062,0.58984,-0.70337,0.36475;
14:28:08.082,0.58911,-0.70142,0.36523;
14:28:08.102,0.58740,-0.70117,0.36694;
14:28:08.122,0.59106,-0.70166,0.36572;
14:28:08.142,0.59033,-0.70068,0.37158;
14:28:08.162,0.59253,-0.69775,0.36987;
14:28:08.182,0.59448,-0.69995,0.36670;
14:28:08.202,0.59326,-0.70630,0.36353;
14:28:08.222,0.59399,-0.70752,0.36865;
14:28:08.242,0.59351,-0.70313,0.36963;
14:28:08.262,0.59082,-0.69800,0.37305;
14:28:08.282,0.59229,-0.69531,0.37305;
14:28:08.302,0.59204,-0.69531,0.36987;
14:28:08.322,0.59033,-0.69849,0.36914;
14:28:08.342,0.59009,-0.70190,0.37183;
14:28:08.362,0.58911,-0.70239,0.37158;
14:28:08.382,0.59131,-0.70386,0.36816;
14:28:08.402,0.59131,-0.70093,0.37012;
14:28:08.422,0.59033,-0.69897,0.37183;
14:28:08.442,0.59033,-0.69971,0.37402;
14:28:08.462,0.58911,-0.69946,0.37671;
14:28:08.482,0.58911,-0.69580,0.37817;
14:28:08.502,0.58936,-0.69263,0.38062;
14:28:08.522,0.58936,-0.69458,0.38037;
14:28:08.542,0.59106,-0.69751,0.37378;
14:28:08.562,0.59204,-0.69995,0.37183;
14:28:08.582,0.59180,-0.69971,0.37280;
14:28:08.602,0.59180,-0.69751,0.37329;
14:28:08.622,0.59253,-0.69995,0.37305;
14:28:08.642,0.59009,-0.70044,0.37305;
14:28:08.662,0.58813,-0.69971,0.37378;
14:28:08.682,0.59180,-0.69385,0.37622;
14:28:08.702,0.59180,-0.69556,0.37451;
14:28:08.722,0.58960,-0.70117,0.37573;
14:28:08.742,0.58936,-0.70239,0.37549;
14:28:08.762,0.58740,-0.69727,0.37183;
14:28:08.782,0.58838,-0.69409,0.37158;
14:28:08.802,0.58936,-0.69800,0.37500;
14:28:08.822,0.58789,-0.69995,0.37598;
14:28:08.842,0.58911,-0.69946,0.37500;
14:28:08.862,0.59180,-0.69824,0.37305;
14:28:08.882,0.59253,-0.69873,0.37500;
14:28:08.902,0.59229,-0.69873,0.37988;
14:28:08.922,0.59082,-0.69458,0.38110;
14:28:08.942,0.58960,-0.69067,0.37866;
14:28:08.962,0.58887,-0.69189,0.37842;
14:28:08.982,0.58765,-0.69604,0.37964;
14:28:09.002,0.58838,-0.69873,0.37695;
14:28:09.022,0.58960,-0.69604,0.37402;
14:28:09.042,0.58960,-0.69556,0.37183;
14:28:09.062,0.58838,-0.69751,0.37695;
14:28:09.082,0.58667,-0.69995,0.38354;
14:28:09.102,0.58887,-0.69629,0.38135;
14:28:09.122,0.59082,-0.69263,0.37891;
14:28:09.142,0.58911,-0.69360,0.38208;
14:28:09.162,0.58643,-0.70020,0.38062;
14:28:09.182,0.58618,-0.70142,0.37939;
14:28:09.202,0.58765,-0.69629,0.37793;
14:28:09.222,0.58740,-0.69019,0.38013;
14:28:09.242,0.58887,-0.68750,0.38232;
14:28:09.262,0.59009,-0.69409,0.38599;
14:28:09.282,0.59009,-0.69849,0.38428;
14:28:09.302,0.59302,-0.69653,0.37866;
14:28:09.322,0.59399,-0.69629,0.37671;
14:28:09.342,0.59204,-0.69824,0.37671;
14:28:09.362,0.58911,-0.69897,0.37988;
14:28:09.382,0.58667,-0.69653,0.38086;
14:28:09.402,0.58691,-0.69604,0.37793;
14:28:09.422,0.58765,-0.69458,0.37891;
14:28:09.442,0.58911,-0.69214,0.37842;
14:28:09.462,0.58691,-0.69727,0.37549;
14:28:09.482,0.58740,-0.70044,0.37915;
14:28:09.502,0.58960,-0.70044,0.37695;
14:28:09.522,0.58960,-0.69995,0.37573;
14:28:09.542,0.59131,-0.69873,0.37646;
14:28:09.562,0.59180,-0.69922,0.37720;
14:28:09.582,0.59229,-0.69775,0.37622;
14:28:09.602,0.59082,-0.69897,0.37012;
14:28:09.622,0.58936,-0.69922,0.37085;
14:28:09.642,0.58984,-0.69873,0.37524;
14:28:09.662,0.59009,-0.69995,0.37183;
14:28:09.682,0.59009,-0.69922,0.36987;
14:28:09.702,0.59009,-0.70093,0.37354;
14:28:09.722,0.58667,-0.69824,0.37939;
14:28:09.742,0.58618,-0.69580,0.38330;
14:28:09.762,0.58936,-0.69702,0.37402;
14:28:09.782,0.59180,-0.70361,0.36694;
14:28:09.802,0.59229,-0.70459,0.36694;
14:28:09.822,0.59106,-0.69946,0.36621;
14:28:09.842,0.59058,-0.69653,0.37256;
14:28:09.862,0.58936,-0.69336,0.37817;
14:28:09.882,0.58984,-0.69409,0.37524;
14:28:09.902,0.59253,-0.70093,0.37378;
14:28:09.922,0.59180,-0.70166,0.37500;
14:28:09.942,0.59106,-0.69629,0.37646;
14:28:09.962,0.59033,-0.69873,0.37646;
14:28:09.982,0.58887,-0.69946,0.37524;
14:28:10.002,0.58862,-0.69946,0.37256;
14:28:10.022,0.58594,-0.69824,0.36938;
14:28:10.042,0.58447,-0.69653,0.37378;
14:28:10.062,0.58594,-0.69556,0.38062;
14:28:10.082,0.58936,-0.69580,0.37427;
14:28:10.102,0.59229,-0.70142,0.37207;
14:28:10.122,0.59302,-0.70410,0.37207;
14:28:10.142,0.59058,-0.69800,0.37305;
14:28:10.162,0.58911,-0.69189,0.37500;
14:28:10.182,0.58862,-0.69336,0.37695;
14:28:10.202,0.58765,-0.69873,0.37598;
14:28:10.222,0.59009,-0.70190,0.37280;
14:28:10.242,0.59204,-0.70410,0.37012;
14:28:10.262,0.59131,-0.70142,0.37085;
14:28:10.282,0.58936,-0.69678,0.37109;
14:28:10.302,0.58887,-0.69434,0.37134;
14:28:10.322,0.58838,-0.69946,0.37427;
14:28:10.342,0.58740,-0.70288,0.37842;
14:28:10.362,0.59009,-0.70068,0.37695;
14:28:10.382,0.59180,-0.69800,0.36987;
14:28:10.402,0.59082,-0.69629,0.37036;
14:28:10.422,0.59009,-0.69922,0.37427;
14:28:10.442,0.58984,-0.70117,0.37427;
14:28:10.462,0.58911,-0.70093,0.37549;
14:28:10.482,0.58936,-0.69800,0.37500;
14:28:10.502,0.58862,-0.69897,0.37476;
14:28:10.522,0.58838,-0.70020,0.37158;
14:28:10.542,0.58960,-0.70044,0.36890;
14:28:10.562,0.59302,-0.70288,0.36865;
14:28:10.582,0.59229,-0.70435,0.36938;
14:28:10.602,0.58838,-0.70508,0.37061;
14:28:10.622,0.58765,-0.69946,0.37158;
14:28:10.642,0.59058,-0.70337,0.36328;
14:28:10.662,0.59155,-0.70508,0.36426;
14:28:10.682,0.58911,-0.70044,0.37695;
14:28:10.702,0.58911,-0.69409,0.38184;
14:28:10.722,0.58936,-0.69531,0.37891;
14:28:10.742,0.59082,-0.69873,0.37549;
14:28:10.762,0.59106,-0.70361,0.37695;
14:28:10.782,0.59106,-0.70093,0.37451;
14:28:10.802,0.59229,-0.69507,0.36670;
14:28:10.822,0.58887,-0.69629,0.36914;
14:28:10.842,0.58911,-0.69995,0.37256;
14:28:10.862,0.58862,-0.70215,0.37280;
14:28:10.882,0.58862,-0.70215,0.37598;
14:28:10.902,0.58936,-0.69849,0.37329;
14:28:10.922,0.59082,-0.69775,0.36987;
14:28:10.942,0.59131,-0.69849,0.37012;
14:28:10.962,0.59009,-0.70142,0.37036;
14:28:10.982,0.59009,-0.70337,0.36816;
14:28:11.002,0.58838,-0.69800,0.37134;
14:28:11.022,0.58643,-0.70068,0.37329;
14:28:11.042,0.58643,-0.69971,0.37329;
14:28:11.062,0.58789,-0.70117,0.37720;
14:28:11.082,0.58984,-0.70093,0.37085;
14:28:11.102,0.59326,-0.70117,0.36597;
14:28:11.122,0.58838,-0.69897,0.37427;
14:28:11.142,0.58813,-0.69458,0.37378;
14:28:11.162,0.59033,-0.69580,0.37329;
14:28:11.182,0.59229,-0.69995,0.37256;
14:28:11.202,0.59253,-0.70410,0.36987;
14:28:11.222,0.59131,-0.70630,0.36914;
14:28:11.242,0.59082,-0.70337,0.36572;
14:28:11.262,0.59009,-0.70044,0.37061;
14:28:11.282,0.58887,-0.69800,0.37305;
14:28:11.302,0.58887,-0.69604,0.36841;
14:28:11.322,0.58911,-0.70288,0.36719;
14:28:11.342,0.58862,-0.70459,0.37036;
14:28:11.362,0.59106,-0.69946,0.37451;
14:28:11.382,0.59155,-0.69873,0.37207;
14:28:11.402,0.59033,-0.69995,0.36743;
14:28:11.422,0.59058,-0.69897,0.36719;
14:28:11.442,0.58911,-0.69995,0.37158;
14:28:11.462,0.58936,-0.70044,0.37402;
14:28:11.482,0.58960,-0.70020,0.37207;
14:28:11.502,0.59058,-0.70020,0.37012;
14:28:11.522,0.59131,-0.70093,0.37207;
14:28:11.542,0.58813,-0.69873,0.37012;
14:28:11.562,0.58765,-0.69897,0.37402;
14:28:11.582,0.58667,-0.69629,0.37305;
14:28:11.602,0.58911,-0.69751,0.37036;
14:28:11.622,0.59155,-0.70142,0.36768;
14:28:11.642,0.58984,-0.70435,0.36841;
14:28:11.662,0.58984,-0.70264,0.37158;
14:28:11.682,0.59131,-0.69727,0.37280;
14:28:11.702,0.59180,-0.70020,0.37109;
14:28:11.722,0.59326,-0.70459,0.36914;
14:28:11.742,0.59204,-0.70557,0.36279;
14:28:11.762,0.58984,-0.70264,0.36084;
14:28:11.782,0.58740,-0.69702,0.36646;
14:28:11.802,0.58618,-0.69360,0.37207;
14:28:11.822,0.58716,-0.69727,0.37573;
14:28:11.842,0.58862,-0.70190,0.37598;
14:28:11.862,0.59033,-0.70410,0.37012;
14:28:11.882,0.59155,-0.70337,0.36987;
14:28:11.902,0.59155,-0.69849,0.37402;
14:28:11.922,0.59009,-0.69604,0.37280;
14:28:11.942,0.58716,-0.70068,0.37451;
14:28:11.962,0.58691,-0.70020,0.37305;
14:28:11.982,0.58936,-0.69897,0.36938;
14:28:12.002,0.58765,-0.69971,0.37036;
14:28:12.022,0.58765,-0.69727,0.37720;
14:28:12.042,0.58911,-0.70068,0.37427;
14:28:12.062,0.58960,-0.70264,0.37183;
14:28:12.082,0.58862,-0.70190,0.37646;
14:28:12.102,0.58862,-0.69409,0.38281;
14:28:12.122,0.59058,-0.69141,0.37915;
14:28:12.142,0.59180,-0.69751,0.37402;
14:28:12.162,0.59058,-0.70264,0.37280;
14:28:12.182,0.58862,-0.70508,0.37354;
14:28:12.202,0.59009,-0.70190,0.37329;
14:28:12.222,0.59058,-0.69897,0.37329;
14:28:12.242,0.58936,-0.69678,0.37207;
14:28:12.262,0.58740,-0.69946,0.37500;
14:28:12.282,0.58838,-0.70361,0.37720;
14:28:12.302,0.58838,-0.70190,0.37524;
14:28:12.322,0.58789,-0.70044,0.37622;
14:28:12.342,0.58813,-0.69775,0.37476;
14:28:12.362,0.58667,-0.69702,0.37085;
14:28:12.382,0.58813,-0.69995,0.37329;
14:28:12.402,0.58984,-0.70190,0.37451;
14:28:12.422,0.59155,-0.70068,0.37134;
14:28:12.442,0.59155,-0.69995,0.37646;
14:28:12.462,0.59204,-0.69702,0.37671;
14:28:12.482,0.59082,-0.69849,0.37573;
14:28:12.502,0.59033,-0.69946,0.37158;
14:28:12.522,0.59058,-0.69971,0.37646;
14:28:12.542,0.58789,-0.69922,0.37183;
14:28:12.562,0.58594,-0.70166,0.37036;
14:28:12.582,0.58691,-0.70142,0.37256;
14:28:12.602,0.58936,-0.70166,0.37061;
14:28:12.622,0.58911,-0.69995,0.36963;
14:28:12.642,0.58936,-0.69678,0.37378;
14:28:12.662,0.59009,-0.70020,0.37573;
14:28:12.682,0.59058,-0.70166,0.37158;
14:28:12.702,0.58911,-0.70459,0.36743;
14:28:12.722,0.58862,-0.70605,0.37134;
14:28:12.742,0.58936,-0.70142,0.37500;
14:28:12.762,0.59033,-0.69336,0.37231;
14:28:12.782,0.59009,-0.69336,0.36816;
14:28:12.802,0.58911,-0.70190,0.36963;
14:28:12.822,0.58960,-0.70361,0.37256;
14:28:12.842,0.59058,-0.70020,0.37598;
14:28:12.862,0.59229,-0.69580,0.37549;
14:28:12.882,0.59131,-0.69775,0.37329;
14:28:12.902,0.59033,-0.70313,0.37109;
14:28:12.922,0.58936,-0.70483,0.37085;
14:28:12.942,0.58813,-0.70288,0.37085;
14:28:12.962,0.58667,-0.69824,0.37280;
14:28:12.982,0.58423,-0.69409,0.37695;
14:28:13.002,0.58545,-0.69458,0.37524;
14:28:13.022,0.58984,-0.70801,0.36768;
14:28:13.042,0.59204,-0.70874,0.36694;
14:28:13.062,0.59082,-0.70142,0.36938;
14:28:13.082,0.58887,-0.69653,0.37012;
14:28:13.102,0.58765,-0.69653,0.37036;
14:28:13.122,0.58691,-0.69995,0.36743;
14:28:13.142,0.58813,-0.70313,0.36890;
14:28:13.162,0.58960,-0.70093,0.37378;
14:28:13.182,0.59009,-0.69897,0.37305;
14:28:13.202,0.58984,-0.69800,0.36914;
14:28:13.222,0.59131,-0.70215,0.37012;
14:28:13.242,0.58984,-0.70264,0.37378;
14:28:13.262,0.58887,-0.70068,0.37329;
14:28:13.282,0.58838,-0.70117,0.37378;
14:28:13.302,0.58643,-0.70044,0.37500;
14:28:13.322,0.58643,-0.70386,0.36938;
14:28:13.342,0.58740,-0.70190,0.36890;
14:28:13.362,0.58765,-0.69336,0.37549;
14:28:13.382,0.58887,-0.69189,0.37500;
14:28:13.402,0.58960,-0.70142,0.37329;
14:28:13.422,0.58936,-0.70654,0.37524;
14:28:13.442,0.58862,-0.70239,0.37915;
14:28:13.462,0.58838,-0.69336,0.37817;
14:28:13.482,0.58813,-0.69189,0.37402;
14:28:13.502,0.58667,-0.70068,0.37500;
14:28:13.522,0.59180,-0.69580,0.37280;
14:28:13.542,0.58838,-0.69922,0.37402;
14:28:13.562,0.58618,-0.70068,0.37793;
14:28:13.582,0.58667,-0.69580,0.37744;
14:28:13.602,0.58691,-0.69385,0.37500;
14:28:13.622,0.58838,-0.69751,0.37427;
14:28:13.642,0.58936,-0.70142,0.37305;
14:28:13.662,0.58936,-0.70215,0.37549;
14:28:13.682,0.58813,-0.69824,0.38013;
14:28:13.702,0.58813,-0.69409,0.37793;
14:28:13.722,0.58984,-0.69971,0.37598;
14:28:13.742,0.59180,-0.70703,0.37427;
14:28:13.762,0.59424,-0.70801,0.37451;
14:28:13.782,0.59033,-0.69849,0.36792;
14:28:13.802,0.58472,-0.69727,0.35205;
14:28:13.822,0.58252,-0.70093,0.36401;
14:28:13.842,0.58423,-0.69141,0.37842;
14:28:13.862,0.58789,-0.69092,0.37427;
14:28:13.882,0.59204,-0.70166,0.37744;
14:28:13.902,0.59253,-0.70947,0.37988;
14:28:13.922,0.59106,-0.70874,0.37866;
14:28:13.942,0.58911,-0.69971,0.37695;
14:28:13.962,0.58496,-0.69067,0.37793;
14:28:13.982,0.58496,-0.69043,0.37402;
14:28:14.002,0.58740,-0.70142,0.37769;
14:28:14.022,0.59082,-0.70020,0.37646;
14:28:14.042,0.59399,-0.70435,0.37524;
14:28:14.062,0.59302,-0.70166,0.37769;
14:28:14.082,0.59204,-0.70386,0.37549;
14:28:14.102,0.59180,-0.71411,0.37280;
14:28:14.122,0.58984,-0.71362,0.36987;
14:28:14.142,0.59033,-0.70825,0.36499;
14:28:14.162,0.58960,-0.70752,0.35962;
14:28:14.182,0.59180,-0.71289,0.35938;
14:28:14.202,0.59814,-0.71851,0.36206;
14:28:14.222,0.59766,-0.71631,0.34839;
14:28:14.242,0.59253,-0.72119,0.33472;
14:28:14.262,0.58936,-0.72021,0.33813;
14:28:14.282,0.59326,-0.71533,0.35474;
14:28:14.302,0.59521,-0.70996,0.37183;
14:28:14.322,0.59277,-0.69507,0.37817;
14:28:14.342,0.59204,-0.68579,0.38550;
14:28:14.362,0.58423,-0.67896,0.38843;
14:28:14.382,0.57275,-0.67285,0.38647;
14:28:14.402,0.56470,-0.66284,0.38428;
14:28:14.422,0.56030,-0.64087,0.39844;
14:28:14.442,0.55200,-0.62476,0.42407;
14:28:14.462,0.54785,-0.61743,0.48950;
14:28:14.482,0.55029,-0.56592,0.52832;
14:28:14.502,0.52466,-0.56616,0.52319;
14:28:14.522,0.50562,-0.55884,0.55078;
14:28:14.542,0.49097,-0.55762,0.58936;
14:28:14.562,0.47900,-0.54346,0.61914;
14:28:14.582,0.47754,-0.52026,0.61694;
14:28:14.602,0.46509,-0.50562,0.60669;
14:28:14.622,0.44800,-0.50732,0.61304;
14:28:14.642,0.42603,-0.50879,0.63428;
14:28:14.662,0.41943,-0.49536,0.65576;
14:28:14.682,0.39478,-0.47437,0.67944;
14:28:14.702,0.38281,-0.42651,0.71899;
14:28:14.722,0.39526,-0.42017,0.73584;
14:28:14.742,0.31763,-0.37061,0.72168;
14:28:14.762,0.22119,-0.21899,0.80444;
14:28:14.782,0.14844,-0.11963,1.00269;
14:28:14.802,0.06128,-0.14038,1.18164;
14:28:14.822,0.03052,-0.19897,1.23706;
14:28:14.842,-0.01074,-0.19214,1.18115;
14:28:14.862,-0.10352,-0.13574,1.14502;
14:28:14.882,-0.15649,-0.12720,1.11597;
14:28:14.902,-0.23608,-0.20361,1.02539;
14:28:14.922,-0.32764,-0.21069,1.08081;
14:28:14.942,-0.28125,-0.10986,1.54712;
14:28:14.962,-0.08521,-0.23535,1.37036;
14:28:14.982,-0.06738,-0.16211,1.46484;
14:28:15.002,-0.03906,-0.05273,1.62769;
14:28:15.022,-0.06665,-0.04468,1.64233;
14:28:15.042,-0.17505,-0.18921,1.28418;
14:28:15.062,-0.26147,-0.49390,0.95215;
14:28:15.082,-0.20557,-0.63501,0.91284;
14:28:15.102,-0.17822,-0.62524,0.82910;
14:28:15.122,-0.25146,-0.63452,0.79712;
14:28:15.142,-0.27490,-0.69653,0.83765;
14:28:15.162,-0.27051,-0.68628,0.81152;
14:28:15.182,-0.45703,-0.56445,0.58179;
14:28:15.202,-0.61255,-0.40039,0.53125;
14:28:15.222,-0.63843,0.00391,0.61353;
14:28:15.242,-0.77759,0.38379,0.39063;
14:28:15.262,0.73755,0.14087,-0.04004;
14:28:15.282,4.32300,-0.39404,0.51001;
14:28:15.302,2.89136,-0.03003,-0.03149;
14:28:15.322,1.42114,0.37988,-0.78247;
14:28:15.342,1.21924,0.57300,-0.70801;
14:28:15.362,0.08398,0.70923,-0.70361;
14:28:15.382,0.49854,0.39063,-0.42090;
14:28:15.402,0.48242,0.35571,-0.52246;
14:28:15.422,0.91382,0.35474,-0.52515;
14:28:15.442,1.09521,-0.22144,-0.74951;
14:28:15.462,0.73535,-0.20435,-0.95337;
14:28:15.482,0.87036,-0.14160,-0.85840;
14:28:15.502,1.10205,-0.21558,-0.63379;
14:28:15.522,1.17334,-0.31738,-0.43506;
14:28:15.542,1.09619,-0.32666,-0.57837;
14:28:15.562,0.97363,-0.15332,-0.71240;
14:28:15.582,0.96826,-0.12231,-0.63965;
14:28:15.602,0.93677,-0.28174,-0.50879;
14:28:15.622,0.73828,-0.36475,-0.33813;
14:28:15.642,0.56982,-0.42358,-0.18555;
14:28:15.662,0.46973,-0.52295,-0.10864;
14:28:15.682,0.41748,-0.64795,-0.16187;
14:28:15.702,0.34082,-0.75562,-0.24097;
14:28:15.722,0.39087,-1.11670,-0.26685;
14:28:15.742,0.33154,-1.18579,-0.27881;
14:28:15.762,0.33228,-1.13062,-0.23779;
14:28:15.782,0.36816,-1.05322,-0.18945;
14:28:15.802,0.42773,-1.03564,-0.21997;
14:28:15.822,0.54297,-0.99292,-0.32544;
14:28:15.842,0.67676,-0.81226,-0.29761;
14:28:15.862,0.75562,-0.59277,-0.32813;
14:28:15.882,0.72266,-0.47583,-0.75684;
14:28:15.902,0.45117,-0.59424,-0.91553;
14:28:15.922,0.40967,-0.75830,-0.71045;
14:28:15.942,0.53101,-0.76465,-0.32495;
14:28:15.962,0.67407,-0.59863,-0.38867;
14:28:15.982,0.63818,-0.34058,-0.69580;
14:28:16.002,0.62061,-0.15503,-0.91040;
14:28:16.022,0.69043,-0.18774,-0.96021;
14:28:16.042,0.74683,-0.43042,-0.85376;
14:28:16.062,0.79395,-0.64087,-0.62476;
14:28:16.082,0.73779,-0.52222,-0.52344;
14:28:16.102,0.53760,-0.19067,-0.58154;
14:28:16.122,0.35474,-0.01123,-0.53223;
14:28:16.142,0.32593,-0.08862,-0.50879;
14:28:16.162,0.41333,-0.17749,-0.58398;
14:28:16.182,0.49365,-0.15234,-0.64209;
14:28:16.202,0.54785,-0.01953,-0.63257;
14:28:16.222,0.56885,0.03979,-0.61304;
14:28:16.242,0.63550,-0.01074,-0.61621;
14:28:16.262,0.69751,0.09985,-0.69897;
14:28:16.282,0.67969,0.20947,-0.75464;
14:28:16.302,0.57080,0.17114,-0.73608;
14:28:16.322,0.46191,0.24683,-0.83594;
14:28:16.342,0.40332,0.70288,-1.13940;
14:28:16.362,0.19043,1.52100,-1.34131;
14:28:16.382,0.18359,0.93115,-1.09253;
14:28:16.402,0.21265,0.71948,-0.87573;
14:28:16.422,0.25244,0.58643,-0.85254;
14:28:16.442,0.23022,0.39282,-0.81763;
14:28:16.462,0.23193,0.20679,-0.78125;
14:28:16.482,0.25464,0.05444,-0.78540;
14:28:16.502,0.29614,-0.08740,-0.76318;
14:28:16.522,0.31592,0.02295,-0.78247;
14:28:16.542,0.32397,0.32129,-0.75659;
14:28:16.562,0.38818,0.51318,-0.72656;
14:28:16.582,0.46777,0.33618,-0.74219;
14:28:16.602,0.44385,0.08691,-0.72681;
14:28:16.622,0.34888,0.01147,-0.74146;
14:28:16.642,0.31860,0.13281,-0.87476;
14:28:16.662,0.32300,0.61255,-1.04468;
14:28:16.682,0.41187,0.99146,-1.12915;
14:28:16.702,0.51343,0.84204,-1.10376;
14:28:16.722,0.57080,0.72021,-1.04932;
14:28:16.742,0.61304,0.61548,-0.98022;
14:28:16.762,0.54395,0.42236,-0.89087;
14:28:16.782,0.46997,0.30273,-0.87061;
14:28:16.802,0.38892,0.20898,-0.85693;
14:28:16.822,0.30493,0.26416,-0.82422;
14:28:16.842,0.22559,0.42334,-0.78564;
14:28:16.862,0.22461,0.50146,-0.74585;
14:28:16.882,0.28760,0.50293,-0.73389;
14:28:16.902,0.28442,0.36426,-0.66406;
14:28:16.922,0.33960,0.14209,-0.67212;
14:28:16.942,0.41064,0.03345,-0.78613;
14:28:16.962,0.45703,0.19678,-0.96509;
14:28:16.982,0.45752,0.35254,-1.11597;
14:28:17.002,0.41113,0.43872,-1.06641;
14:28:17.022,0.37280,0.50635,-0.89746;
14:28:17.042,0.34937,0.50317,-0.81250;
14:28:17.062,0.36548,0.46924,-0.82764;
14:28:17.082,0.39868,0.40820,-0.83936;
14:28:17.102,0.42236,0.32983,-0.81299;
14:28:17.122,0.49805,0.26270,-0.79785;
14:28:17.142,0.50879,0.27588,-0.83228;
14:28:17.162,0.47168,0.40405,-0.90869;
14:28:17.182,0.44019,0.48560,-0.93579;
14:28:17.202,0.40308,0.42822,-0.87500;
14:28:17.222,0.40234,0.38672,-0.81616;
14:28:17.242,0.40527,0.44702,-0.82471;
14:28:17.262,0.37036,0.50879,-0.85938;
14:28:17.282,0.33008,0.49829,-0.88184;
14:28:17.302,0.34302,0.47900,-0.89966;
14:28:17.322,0.34351,0.49561,-0.92041;
14:28:17.342,0.32056,0.48120,-0.93774;
14:28:17.362,0.30029,0.36523,-0.92358;
14:28:17.382,0.29175,0.20728,-0.89063;
14:28:17.402,0.30688,0.18701,-0.86841;
14:28:17.422,0.33350,0.19092,-0.82715;
14:28:17.442,0.38086,0.27686,-0.80493;
14:28:17.462,0.41138,0.37061,-0.78882;
14:28:17.482,0.43213,0.44824,-0.78271;
14:28:17.502,0.47192,0.48340,-0.79370;
14:28:17.522,0.50635,0.55249,-0.83008;
14:28:17.542,0.51538,0.61865,-0.86841;
14:28:17.562,0.50513,0.56641,-0.87207;
14:28:17.582,0.49780,0.47412,-0.85913;
14:28:17.602,0.47778,0.42871,-0.87158;
14:28:17.622,0.45508,0.40430,-0.88745;
14:28:17.642,0.43506,0.34326,-0.85327;
14:28:17.662,0.41675,0.26685,-0.80176;
14:28:17.682,0.40259,0.25073,-0.75513;
14:28:17.702,0.38940,0.33057,-0.73047;
14:28:17.722,0.38892,0.40332,-0.76782;
14:28:17.742,0.36035,0.45703,-0.86060;
14:28:17.762,0.34204,0.47217,-0.94360;
14:28:17.782,0.34375,0.46069,-0.97168;
14:28:17.802,0.37231,0.43945,-0.94458;
14:28:17.822,0.40747,0.36694,-0.90552;
14:28:17.842,0.41992,0.32104,-0.89282;
14:28:17.862,0.41211,0.33203,-0.88086;
14:28:17.882,0.38550,0.37573,-0.80347;
14:28:17.902,0.38794,0.39233,-0.77783;
14:28:17.922,0.40210,0.35815,-0.77368;
14:28:17.942,0.42529,0.34277,-0.81323;
14:28:17.962,0.45630,0.36475,-0.86719;
14:28:17.982,0.45605,0.38916,-0.88818;
14:28:18.002,0.43579,0.43188,-0.88940;
14:28:18.022,0.43262,0.42310,-0.85229;
14:28:18.042,0.45166,0.35181,-0.76099;
14:28:18.062,0.45435,0.30029,-0.72656;
14:28:18.082,0.43799,0.24268,-0.81250;
14:28:18.102,0.42432,0.20068,-0.93335;
14:28:18.122,0.43579,0.22632,-0.94116;
14:28:18.142,0.44238,0.22168,-0.87256;
14:28:18.162,0.43335,0.20532,-0.90430;
14:28:18.182,0.41968,0.23047,-0.97461;
14:28:18.202,0.39819,0.25928,-0.96289;
14:28:18.222,0.38452,0.27759,-0.90039;
14:28:18.242,0.40527,0.31104,-0.85791;
14:28:18.262,0.41919,0.38037,-0.87329;
14:28:18.282,0.38672,0.45703,-0.88452;
14:28:18.302,0.36255,0.47803,-0.84570;
14:28:18.322,0.36182,0.44409,-0.83032;
14:28:18.342,0.37793,0.40894,-0.87500;
14:28:18.362,0.41016,0.34448,-0.90381;
14:28:18.382,0.41138,0.20728,-0.89819;
14:28:18.402,0.45313,0.20581,-0.88013;
14:28:18.422,0.48218,0.27246,-0.87793;
14:28:18.442,0.47241,0.35254,-0.83643;
14:28:18.462,0.45605,0.38184,-0.78906;
14:28:18.482,0.44629,0.35767,-0.82642;
14:28:18.502,0.43164,0.33960,-0.89746;
14:28:18.522,0.44141,0.30566,-0.89624;
14:28:18.542,0.44800,0.25464,-0.88647;
14:28:18.562,0.43188,0.25708,-0.92212;
14:28:18.582,0.38135,0.27441,-0.91016;
14:28:18.602,0.33032,0.28027,-0.86987;
14:28:18.622,0.27979,0.29712,-0.87500;
14:28:18.642,0.25537,0.30469,-0.90991;
14:28:18.662,0.27881,0.30713,-0.94263;
14:28:18.682,0.33447,0.30298,-0.95435;
14:28:18.702,0.39526,0.31885,-0.95898;
14:28:18.722,0.42773,0.30103,-0.94824;
14:28:18.742,0.43823,0.29736,-0.93164;
14:28:18.762,0.40356,0.34766,-0.91992;
14:28:18.782,0.35156,0.33081,-0.90796;
14:28:18.802,0.33887,0.26709,-0.91211;
14:28:18.822,0.36328,0.21997,-0.91455;
14:28:18.842,0.39648,0.18408,-0.87280;
14:28:18.862,0.42554,0.18921,-0.76758;
14:28:18.882,0.50146,0.24194,-0.81982;
14:28:18.902,0.53613,0.33472,-0.84326;
14:28:18.922,0.50806,0.36255,-0.79150;
14:28:18.942,0.45142,0.33301,-0.83032;
14:28:18.962,0.41138,0.28662,-0.94971;
14:28:18.982,0.39941,0.26416,-0.98193;
14:28:19.002,0.37939,0.30005,-0.94678;
14:28:19.022,0.35864,0.33618,-0.95093;
14:28:19.042,0.36011,0.31592,-0.95923;
14:28:19.062,0.37329,0.31738,-0.92993;
14:28:19.082,0.36890,0.36108,-0.93140;
14:28:19.102,0.33203,0.33325,-0.94873;
14:28:19.122,0.28809,0.28394,-0.92773;
14:28:19.142,0.27563,0.26953,-0.89160;
14:28:19.162,0.28979,0.24414,-0.88208;
14:28:19.182,0.29639,0.24390,-0.92065;
14:28:19.202,0.31445,0.25122,-0.94458;
14:28:19.222,0.31104,0.24561,-0.93750;
14:28:19.242,0.32397,0.25024,-0.92798;
14:28:19.262,0.36060,0.26318,-0.92993;
14:28:19.282,0.40063,0.29053,-0.93457;
14:28:19.302,0.42554,0.32178,-0.91016;
14:28:19.322,0.43921,0.34717,-0.88550;
14:28:19.342,0.43945,0.32837,-0.87671;
14:28:19.362,0.41113,0.27881,-0.89355;
14:28:19.382,0.37085,0.21655,-0.89038;
14:28:19.402,0.36353,0.21118,-0.89990;
14:28:19.422,0.37354,0.19897,-0.91162;
14:28:19.442,0.40332,0.23682,-0.92725;
14:28:19.462,0.39771,0.29761,-0.91333;
14:28:19.482,0.35840,0.31567,-0.87427;
14:28:19.502,0.32666,0.26953,-0.87500;
14:28:19.522,0.34033,0.19434,-0.92188;
14:28:19.542,0.37451,0.14819,-0.97754;
14:28:19.562,0.38818,0.13525,-1.00684;
14:28:19.582,0.39453,0.15186,-1.00537;
14:28:19.602,0.38013,0.20801,-0.99023;
14:28:19.622,0.35864,0.26611,-0.95874;
14:28:19.642,0.34473,0.31494,-0.92383;
14:28:19.662,0.32056,0.36743,-0.86133;
14:28:19.682,0.30371,0.37915,-0.79712;
14:28:19.702,0.30469,0.37793,-0.82373;
14:28:19.722,0.32056,0.36328,-0.89209;
14:28:19.742,0.35132,0.28760,-0.95166;
14:28:19.762,0.37231,0.24292,-0.97266;
14:28:19.782,0.38232,0.23901,-0.94507;
14:28:19.802,0.39258,0.23608,-0.91626;
14:28:19.822,0.40454,0.25464,-0.91016;
14:28:19.842,0.40210,0.28418,-0.91016;
14:28:19.862,0.39502,0.30884,-0.91504;
14:28:19.882,0.37085,0.32764,-0.90625;
14:28:19.902,0.36035,0.30737,-0.88354;
14:28:19.922,0.35864,0.25928,-0.85303;
14:28:19.942,0.36694,0.21753,-0.88721;
14:28:19.962,0.37378,0.22314,-0.95142;
14:28:19.982,0.38599,0.23804,-0.94873;
14:28:20.002,0.39331,0.22266,-0.89746;
14:28:20.022,0.41602,0.24561,-0.89429;
14:28:20.042,0.42822,0.28760,-0.95679;
14:28:20.062,0.38184,0.28394,-0.98315;
14:28:20.082,0.33594,0.26563,-0.89209;
14:28:20.102,0.31958,0.23999,-0.81445;
14:28:20.122,0.39307,0.25049,-0.90161;
14:28:20.142,0.39160,0.28149,-0.92456;
14:28:20.162,0.40063,0.33203,-0.99634;
14:28:20.182,0.39307,0.35205,-0.99707;
14:28:20.202,0.36450,0.34790,-0.91333;
14:28:20.222,0.31348,0.31567,-0.83057;
14:28:20.242,0.30054,0.25488,-0.80835;
14:28:20.262,0.32495,0.19946,-0.85986;
14:28:20.282,0.35962,0.19653,-0.92163;
14:28:20.302,0.39063,0.26196,-0.90918;
14:28:20.322,0.39380,0.26050,-0.89844;
14:28:20.342,0.38208,0.27002,-0.94922;
14:28:20.362,0.37012,0.29175,-0.97852;
14:28:20.382,0.35840,0.33154,-0.92944;
14:28:20.402,0.33960,0.32764,-0.89258;
14:28:20.422,0.34204,0.31763,-0.90137;
14:28:20.442,0.34814,0.30249,-0.94580;
14:28:20.462,0.34985,0.26221,-0.95435;
14:28:20.482,0.35742,0.24219,-0.88892;
14:28:20.502,0.36621,0.24707,-0.84839;
14:28:20.522,0.39819,0.29492,-0.88940;
14:28:20.542,0.39697,0.32617,-0.96558;
14:28:20.562,0.34912,0.31665,-1.01025;
14:28:20.582,0.30029,0.30078,-0.97217;
14:28:20.602,0.25684,0.26855,-0.88062;
14:28:20.622,0.26685,0.23584,-0.85034;
14:28:20.642,0.30786,0.21777,-0.91235;
14:28:20.662,0.34912,0.22070,-0.98950;
14:28:20.682,0.39063,0.25757,-0.98779;
14:28:20.702,0.38672,0.24756,-0.89746;
14:28:20.722,0.35229,0.23364,-0.84302;
14:28:20.742,0.31665,0.29541,-0.90723;
14:28:20.762,0.30933,0.31812,-0.98242;
14:28:20.782,0.32861,0.30762,-0.98633;
14:28:20.802,0.37793,0.31763,-0.86206;
14:28:20.822,0.41187,0.39282,-0.89746;
14:28:20.842,0.41748,0.35498,-0.86304;
14:28:20.862,0.40698,0.31177,-0.79395;
14:28:20.882,0.40063,0.33057,-0.85791;
14:28:20.902,0.40283,0.36865,-0.98560;
14:28:20.922,0.36792,0.32886,-1.00024;
14:28:20.942,0.33521,0.29028,-0.89868;
14:28:20.962,0.29980,0.30151,-0.81055;
14:28:20.982,0.27661,0.31714,-0.82275;
14:28:21.002,0.29028,0.33813,-0.93335;
14:28:21.022,0.33789,0.30396,-0.97876;
14:28:21.042,0.36377,0.23730,-0.92700;
14:28:21.062,0.38599,0.22900,-0.90552;
14:28:21.082,0.43091,0.20801,-0.92603;
14:28:21.102,0.46973,0.16650,-0.92407;
14:28:21.122,0.48047,0.18213,-0.89282;
14:28:21.142,0.46582,0.20190,-0.87451;
14:28:21.162,0.43164,0.18750,-0.89185;
14:28:21.182,0.41113,0.17041,-0.93286;
14:28:21.202,0.40063,0.20313,-0.96606;
14:28:21.222,0.37964,0.29126,-0.93750;
14:28:21.242,0.34863,0.36328,-0.87744;
14:28:21.262,0.32031,0.38379,-0.84766;
14:28:21.282,0.30884,0.40527,-1.02393;
14:28:21.302,0.31079,0.38257,-0.95581;
14:28:21.322,0.34302,0.33032,-0.79834;
14:28:21.342,0.36987,0.27271,-0.75708;
14:28:21.362,0.38525,0.26123,-0.85620;
14:28:21.382,0.37549,0.15430,-0.95093;
14:28:21.402,0.36011,0.03442,-1.00317;
14:28:21.422,0.34814,-0.02710,-0.99365;
14:28:21.442,0.36255,-0.03442,-0.94287;
14:28:21.462,0.38379,0.07666,-0.92163;
14:28:21.482,0.39697,0.22681,-0.90820;
14:28:21.502,0.40356,0.31689,-0.89526;
14:28:21.522,0.38501,0.38232,-0.89551;
14:28:21.542,0.37476,0.41821,-0.89160;
14:28:21.562,0.37427,0.41406,-0.88281;
14:28:21.582,0.37793,0.38208,-0.86279;
14:28:21.602,0.37500,0.33740,-0.85791;
14:28:21.622,0.36841,0.28662,-0.87573;
14:28:21.642,0.36865,0.24707,-0.89038;
14:28:21.662,0.36426,0.21265,-0.89453;
14:28:21.682,0.36865,0.20703,-0.90112;
14:28:21.702,0.37769,0.22363,-0.91333;
14:28:21.722,0.39014,0.25098,-0.92651;
14:28:21.742,0.39575,0.28467,-0.93750;
14:28:21.762,0.40894,0.31372,-0.91187;
14:28:21.782,0.39063,0.34375,-0.88867;
14:28:21.802,0.37183,0.33960,-0.88208;
14:28:21.822,0.36743,0.33008,-0.87720;
14:28:21.842,0.36328,0.31592,-0.88232;
14:28:21.862,0.37012,0.29858,-0.89185;
14:28:21.882,0.37036,0.27954,-0.89893;
14:28:21.902,0.36328,0.26440,-0.89673;
14:28:21.922,0.36035,0.26880,-0.89624;
14:28:21.942,0.36768,0.28687,-0.90503;
14:28:21.962,0.38013,0.30493,-0.91138;
14:28:21.982,0.38574,0.32007,-0.90991;
14:28:22.002,0.37964,0.31616,-0.91284;
14:28:22.022,0.37622,0.30225,-0.90869;
14:28:22.042,0.37695,0.30444,-0.91016;
14:28:22.062,0.38013,0.29858,-0.91797;
14:28:22.082,0.37939,0.28613,-0.91577;
14:28:22.102,0.37646,0.28491,-0.91113;
14:28:22.122,0.38110,0.28906,-0.90161;
14:28:22.142,0.38525,0.29199,-0.89453;
14:28:22.162,0.39014,0.30127,-0.89331;
14:28:22.182,0.39429,0.31421,-0.89233;
14:28:22.202,0.38843,0.32007,-0.88721;
14:28:22.222,0.37769,0.31421,-0.88818;
14:28:22.242,0.37354,0.30298,-0.89087;
14:28:22.262,0.37964,0.28027,-0.88989;
14:28:22.282,0.38525,0.27319,-0.88770;
14:28:22.302,0.39014,0.26929,-0.88403;
14:28:22.322,0.39648,0.26929,-0.87988;
14:28:22.342,0.40356,0.28320,-0.88184;
14:28:22.362,0.40503,0.30957,-0.89331;
14:28:22.382,0.39990,0.31714,-0.89917;
14:28:22.402,0.39453,0.31006,-0.89844;
14:28:22.422,0.39600,0.30493,-0.89453;
14:28:22.442,0.39453,0.29541,-0.89038;
14:28:22.462,0.38989,0.28735,-0.88330;
14:28:22.482,0.38940,0.28271,-0.88013;
14:28:22.502,0.38867,0.27979,-0.88379;
14:28:22.522,0.39331,0.28442,-0.89575;
14:28:22.542,0.39307,0.29126,-0.90967;
14:28:22.562,0.39209,0.30713,-0.91162;
14:28:22.582,0.39233,0.32642,-0.90503;
14:28:22.602,0.38940,0.32227,-0.89478;
14:28:22.622,0.39355,0.30078,-0.88745;
14:28:22.642,0.39941,0.29443,-0.88232;
14:28:22.662,0.40088,0.29736,-0.88574;
14:28:22.682,0.39746,0.29297,-0.88794;
14:28:22.702,0.39136,0.28223,-0.88867;
14:28:22.722,0.38745,0.27856,-0.89038;
14:28:22.742,0.38696,0.30151,-0.90210;
14:28:22.762,0.39258,0.30835,-0.90161;
14:28:22.782,0.39478,0.29102,-0.89746;
14:28:22.802,0.39771,0.27686,-0.89355;
14:28:22.822,0.40234,0.28149,-0.89233;
14:28:22.842,0.40308,0.28467,-0.89014;
14:28:22.862,0.40063,0.28857,-0.88843;
14:28:22.882,0.39209,0.29541,-0.88550;
14:28:22.902,0.38696,0.29150,-0.88550;
14:28:22.922,0.38745,0.27954,-0.89185;
14:28:22.942,0.39136,0.27197,-0.89917;
14:28:22.962,0.39917,0.27393,-0.90356;
14:28:22.982,0.40015,0.27759,-0.89990;
14:28:23.002,0.39771,0.27759,-0.89380;
14:28:23.022,0.39429,0.28052,-0.89258;
14:28:23.042,0.38989,0.27832,-0.89526;
14:28:23.062,0.38965,0.28320,-0.89966;
14:28:23.082,0.39136,0.28833,-0.90259;
14:28:23.102,0.38965,0.28247,-0.90381;
14:28:23.122,0.38770,0.27905,-0.90454;
14:28:23.142,0.38770,0.27783,-0.90210;
14:28:23.162,0.38599,0.27832,-0.90063;
14:28:23.182,0.38574,0.27588,-0.89771;
14:28:23.202,0.39014,0.27686,-0.89575;
14:28:23.222,0.39551,0.28052,-0.89526;
14:28:23.242,0.40503,0.27808,-0.89673;
14:28:23.262,0.41089,0.28711,-0.89771;
14:28:23.282,0.38770,0.29346,-0.89404;
14:28:23.302,0.37866,0.28931,-0.89380;
14:28:23.322,0.37842,0.27368,-0.89697;
14:28:23.342,0.38086,0.26025,-0.90454;
14:28:23.362,0.38867,0.24878,-0.91504;
14:28:23.382,0.39404,0.25146,-0.91382;
14:28:23.402,0.39355,0.26343,-0.90967;
14:28:23.422,0.39209,0.27148,-0.90430;
14:28:23.442,0.38818,0.28174,-0.89941;
14:28:23.462,0.38843,0.28564,-0.89893;
14:28:23.482,0.38721,0.28174,-0.89868;
14:28:23.502,0.38354,0.27588,-0.90283;
14:28:23.522,0.38208,0.27466,-0.90430;
14:28:23.542,0.38135,0.27197,-0.90210;
14:28:23.562,0.38477,0.26929,-0.90381;
14:28:23.582,0.38745,0.26636,-0.90479;
14:28:23.602,0.38794,0.26978,-0.90625;
14:28:23.622,0.38818,0.27979,-0.90674;
14:28:23.642,0.38745,0.28003,-0.90503;
14:28:23.662,0.38965,0.27612,-0.90356;
14:28:23.682,0.38770,0.27100,-0.90063;
14:28:23.702,0.38721,0.27051,-0.89600;
14:28:23.722,0.38110,0.27783,-0.89600;
14:28:23.742,0.38306,0.28125,-0.90186;
14:28:23.762,0.38989,0.26880,-0.90332;
14:28:23.782,0.39575,0.26709,-0.90625;
14:28:23.802,0.39355,0.26465,-0.90942;
14:28:23.822,0.39282,0.26660,-0.90747;
14:28:23.842,0.39429,0.26978,-0.90259;
14:28:23.862,0.39380,0.26440,-0.89990;
14:28:23.882,0.39185,0.26440,-0.90039;
14:28:23.902,0.39160,0.26904,-0.90210;
14:28:23.922,0.39185,0.26880,-0.90210;
14:28:23.942,0.38940,0.27222,-0.90234;
14:28:23.962,0.38892,0.27734,-0.90259;
14:28:23.982,0.39209,0.27979,-0.90503;
14:28:24.002,0.39160,0.27905,-0.90430;
14:28:24.022,0.39136,0.27148,-0.90039;
14:28:24.042,0.38916,0.26538,-0.90039;
14:28:24.062,0.38916,0.26782,-0.89771;
14:28:24.082,0.39038,0.27563,-0.89722;
14:28:24.102,0.38867,0.27783,-0.89771;
14:28:24.122,0.38867,0.27759,-0.89844;
14:28:24.142,0.38623,0.27759,-0.90259;
14:28:24.162,0.38916,0.27441,-0.90527;
14:28:24.182,0.39014,0.27441,-0.90381;
14:28:24.202,0.38916,0.27173,-0.90479;
14:28:24.222,0.39233,0.26685,-0.90430;
14:28:24.242,0.39429,0.26807,-0.90088;
14:28:24.262,0.39380,0.27100,-0.90381;
14:28:24.282,0.39453,0.27246,-0.90405;
14:28:24.302,0.39526,0.27856,-0.90015;
14:28:24.322,0.39453,0.28198,-0.89600;
14:28:24.342,0.39551,0.27563,-0.88940;
14:28:24.362,0.39478,0.27393,-0.88940;
14:28:24.382,0.39453,0.27295,-0.89404;
14:28:24.402,0.39478,0.27051,-0.89575;
14:28:24.422,0.39575,0.27637,-0.89697;
14:28:24.442,0.39575,0.27905,-0.89575;
14:28:24.462,0.39380,0.27734,-0.89160;
14:28:24.482,0.39111,0.27466,-0.89624;
14:28:24.502,0.39209,0.27197,-0.89795;
14:28:24.522,0.40088,0.27051,-0.89429;
14:28:24.542,0.40234,0.27612,-0.89233;
14:28:24.562,0.39795,0.27417,-0.89282;
14:28:24.582,0.39551,0.26953,-0.89722;
14:28:24.602,0.39233,0.27344,-0.90210;
14:28:24.622,0.39355,0.27319,-0.90405;
14:28:24.642,0.39185,0.27026,-0.90063;
14:28:24.662,0.39233,0.27246,-0.90332;
14:28:24.682,0.39526,0.27368,-0.90576;
14:28:24.702,0.39233,0.26660,-0.89893;
14:28:24.722,0.39575,0.27197,-0.89697;
14:28:24.742,0.39673,0.27466,-0.89575;
14:28:24.762,0.39307,0.27368,-0.89648;
14:28:24.782,0.39038,0.27490,-0.89990;
14:28:24.802,0.39038,0.27344,-0.90039;
14:28:24.822,0.39111,0.26855,-0.89966;
14:28:24.842,0.39282,0.26538,-0.89771;
14:28:24.862,0.39429,0.26685,-0.89746;
14:28:24.882,0.39014,0.27368,-0.89966;
14:28:24.902,0.38843,0.27808,-0.90088;
14:28:24.922,0.38916,0.27759,-0.90137;
14:28:24.942,0.38989,0.27686,-0.90063;
14:28:24.962,0.39233,0.27173,-0.90356;
14:28:24.982,0.39575,0.26489,-0.90186;
14:28:25.002,0.39502,0.26123,-0.90063;
14:28:25.022,0.38818,0.26025,-0.90503;
14:28:25.042,0.38623,0.26294,-0.90405;
14:28:25.062,0.38843,0.26855,-0.90308;
14:28:25.082,0.38916,0.27319,-0.89941;
14:28:25.102,0.38940,0.27490,-0.89453;
14:28:25.122,0.39331,0.27417,-0.89233;
14:28:25.142,0.39063,0.27173,-0.89404;
14:28:25.162,0.38550,0.27002,-0.90820;
14:28:25.182,0.38794,0.26636,-0.90845;
14:28:25.202,0.39209,0.26782,-0.90356;
14:28:25.222,0.38940,0.27148,-0.89697;
14:28:25.242,0.38501,0.27173,-0.89648;
14:28:25.262,0.38379,0.26758,-0.89819;
14:28:25.282,0.38501,0.26807,-0.90161;
14:28:25.302,0.38574,0.26953,-0.90771;
14:28:25.322,0.38794,0.27295,-0.90674;
14:28:25.342,0.38916,0.27197,-0.90454;
14:28:25.362,0.38843,0.26880,-0.90259;
14:28:25.382,0.38696,0.26904,-0.90381;
14:28:25.402,0.38428,0.26221,-0.90503;
14:28:25.422,0.38599,0.25952,-0.90381;
14:28:25.442,0.38721,0.26367,-0.90552;
14:28:25.462,0.38672,0.26489,-0.90649;
14:28:25.482,0.38281,0.26514,-0.90576;
14:28:25.502,0.38110,0.26880,-0.89966;
14:28:25.522,0.38477,0.26660,-0.89746;
14:28:25.542,0.38599,0.26343,-0.90283;
14:28:25.562,0.38477,0.26270,-0.90991;
14:28:25.582,0.38721,0.26099,-0.91455;
14:28:25.602,0.38647,0.25708,-0.91138;
14:28:25.622,0.38403,0.25366,-0.90674;
14:28:25.642,0.38477,0.25903,-0.90771;
14:28:25.662,0.37988,0.26147,-0.90991;
14:28:25.682,0.38062,0.26270,-0.91260;
14:28:25.702,0.38013,0.26343,-0.91553;
14:28:25.722,0.37891,0.26050,-0.91089;
14:28:25.742,0.37866,0.25708,-0.90991;
14:28:25.762,0.38159,0.25366,-0.90894;
14:28:25.782,0.38403,0.25537,-0.90747;
14:28:25.802,0.38379,0.26245,-0.90796;
14:28:25.822,0.38208,0.26685,-0.90747;
14:28:25.842,0.37939,0.27026,-0.90674;
14:28:25.862,0.37744,0.27051,-0.90625;
14:28:25.882,0.37964,0.26416,-0.90649;
14:28:25.902,0.38062,0.25659,-0.90820;
14:28:25.922,0.38257,0.25537,-0.90869;
14:28:25.942,0.38208,0.25464,-0.90869;
14:28:25.962,0.38062,0.25513,-0.90942;
14:28:25.982,0.38037,0.26025,-0.90723;
14:28:26.002,0.38062,0.26343,-0.90869;
14:28:26.022,0.37915,0.26587,-0.91040;
14:28:26.042,0.37695,0.26587,-0.90967;
14:28:26.062,0.37793,0.26294,-0.91064;
14:28:26.082,0.37695,0.25757,-0.91040;
14:28:26.102,0.37793,0.25977,-0.91016;
14:28:26.122,0.37915,0.26270,-0.91260;
14:28:26.142,0.37866,0.26245,-0.91064;
14:28:26.162,0.37769,0.25952,-0.91113;
14:28:26.182,0.37891,0.25684,-0.90942;
14:28:26.202,0.37891,0.25757,-0.90820;
14:28:26.222,0.37891,0.25952,-0.90723;
14:28:26.242,0.37695,0.26270,-0.90918;
14:28:26.262,0.37720,0.26318,-0.91089;
14:28:26.282,0.37866,0.26147,-0.90942;
14:28:26.302,0.37842,0.26123,-0.91260;
14:28:26.322,0.37744,0.26294,-0.91064;
14:28:26.342,0.37671,0.26392,-0.91309;
14:28:26.362,0.37622,0.26123,-0.91235;
14:28:26.382,0.37695,0.25854,-0.91089;
14:28:26.402,0.37793,0.25513,-0.91260;
14:28:26.422,0.37842,0.25586,-0.91016;
14:28:26.442,0.37988,0.25928,-0.91162;
14:28:26.462,0.37793,0.26172,-0.91089;
14:28:26.482,0.37329,0.26392,-0.91064;
14:28:26.502,0.37402,0.26465,-0.90649;
14:28:26.522,0.37622,0.26196,-0.90332;
14:28:26.542,0.37646,0.25928,-0.90503;
14:28:26.562,0.37671,0.25830,-0.91382;
14:28:26.582,0.37671,0.25928,-0.91846;
14:28:26.602,0.37720,0.26123,-0.91602;
14:28:26.622,0.37720,0.26367,-0.91357;
14:28:26.642,0.37622,0.25488,-0.91211;
14:28:26.662,0.37402,0.25049,-0.91162;
14:28:26.682,0.37378,0.25708,-0.91455;
14:28:26.702,0.37378,0.26050,-0.91455;
14:28:26.722,0.37280,0.26099,-0.91699;
14:28:26.742,0.37305,0.26025,-0.91748;
14:28:26.762,0.37500,0.25610,-0.91431;
14:28:26.782,0.37573,0.25342,-0.91309;
14:28:26.802,0.37598,0.25708,-0.91333;
14:28:26.822,0.37476,0.26001,-0.91528;
14:28:26.842,0.37256,0.26099,-0.91528;
14:28:26.862,0.37256,0.26172,-0.91431;
14:28:26.882,0.37451,0.25854,-0.91382;
14:28:26.902,0.37695,0.25806,-0.91309;
14:28:26.922,0.37671,0.25562,-0.91577;
14:28:26.942,0.37622,0.25610,-0.91431;
14:28:26.962,0.37695,0.25757,-0.91064;
14:28:26.982,0.37695,0.25684,-0.91064;
14:28:27.002,0.37695,0.26099,-0.91138;
14:28:27.022,0.37549,0.26147,-0.91309;
14:28:27.042,0.37573,0.26147,-0.91382;
14:28:27.062,0.37549,0.26318,-0.91479;
14:28:27.082,0.37549,0.26147,-0.91138;
14:28:27.102,0.37671,0.26001,-0.91089;
14:28:27.122,0.37744,0.26245,-0.91040;
14:28:27.142,0.37793,0.26245,-0.91235;
14:28:27.162,0.37695,0.26245,-0.90967;
14:28:27.182,0.37646,0.26196,-0.91138;
14:28:27.202,0.37720,0.26147,-0.91382;
14:28:27.222,0.37695,0.26318,-0.90991;
14:28:27.242,0.37695,0.26196,-0.90869;
14:28:27.262,0.37793,0.26196,-0.90820;
14:28:27.282,0.37842,0.26221,-0.90991;
14:28:27.302,0.37964,0.26318,-0.91064;
14:28:27.322,0.37866,0.26440,-0.91113;
14:28:27.342,0.37842,0.26074,-0.91113;
14:28:27.362,0.37891,0.26147,-0.90918;
14:28:27.382,0.37939,0.26270,-0.90942;
14:28:27.402,0.38037,0.26343,-0.90845;
14:28:27.422,0.37939,0.26611,-0.90527;
14:28:27.442,0.37939,0.26392,-0.90771;
14:28:27.462,0.37891,0.26123,-0.90942;
14:28:27.482,0.37988,0.25928,-0.90845;
14:28:27.502,0.38354,0.26245,-0.90869;
14:28:27.522,0.38281,0.26343,-0.90674;
14:28:27.542,0.38208,0.26123,-0.90869;
14:28:27.562,0.37939,0.26758,-0.90649;
14:28:27.582,0.38037,0.26416,-0.90479;
14:28:27.602,0.38062,0.26050,-0.90576;
14:28:27.622,0.38428,0.26123,-0.90503;
14:28:27.642,0.38501,0.26123,-0.91016;
14:28:27.662,0.38281,0.25903,-0.90942;
14:28:27.682,0.38354,0.25977,-0.90796;
14:28:27.702,0.38452,0.26074,-0.90674;
14:28:27.722,0.38477,0.25952,-0.90454;
14:28:27.742,0.38525,0.26392,-0.90186;
14:28:27.762,0.38428,0.26587,-0.90234;
14:28:27.782,0.38428,0.26538,-0.90454;
14:28:27.802,0.38403,0.26611,-0.90259;
14:28:27.822,0.38501,0.26367,-0.90430;
14:28:27.842,0.38379,0.26099,-0.90820;
14:28:27.862,0.38428,0.26123,-0.90576;
14:28:27.882,0.38647,0.26318,-0.90039;
14:28:27.902,0.38745,0.26416,-0.89868;
14:28:27.922,0.38452,0.26416,-0.89575;
14:28:27.942,0.38330,0.26587,-0.89917;
14:28:27.962,0.38574,0.26343,-0.90381;
14:28:27.982,0.38525,0.25659,-0.90894;
14:28:28.002,0.38379,0.25439,-0.91089;
14:28:28.022,0.38354,0.25562,-0.90796;
14:28:28.042,0.38550,0.26025,-0.90747;
14:28:28.062,0.38574,0.26563,-0.90308;
14:28:28.082,0.38721,0.26465,-0.90283;
14:28:28.102,0.38501,0.26294,-0.90430;
14:28:28.122,0.38354,0.26025,-0.90576;
14:28:28.142,0.38330,0.25806,-0.90918;
14:28:28.162,0.38306,0.26025,-0.91064;
14:28:28.182,0.38330,0.26172,-0.90918;
14:28:28.202,0.38452,0.26270,-0.90601;
14:28:28.222,0.38501,0.26270,-0.90454;
14:28:28.242,0.38403,0.26099,-0.90552;
14:28:28.262,0.38403,0.26099,-0.90601;
14:28:28.282,0.38257,0.25952,-0.90796;
14:28:28.302,0.38184,0.25952,-0.91309;
14:28:28.322,0.38062,0.26074,-0.91138;
14:28:28.342,0.38086,0.26147,-0.91040;
14:28:28.362,0.38013,0.26025,-0.90967;
14:28:28.382,0.38062,0.25879,-0.90698;
14:28:28.402,0.38281,0.26001,-0.90723;
14:28:28.422,0.38257,0.26123,-0.90918;
14:28:28.442,0.38306,0.26099,-0.91064;
14:28:28.462,0.38135,0.25806,-0.90894;
14:28:28.482,0.38013,0.25415,-0.91113;
14:28:28.502,0.38208,0.25537,-0.91040;
14:28:28.522,0.38306,0.25879,-0.90796;
14:28:28.542,0.38159,0.25781,-0.90674;
14:28:28.562,0.37793,0.25952,-0.90918;
14:28:28.582,0.38110,0.25635,-0.90942;
14:28:28.602,0.38110,0.25317,-0.91382;
14:28:28.622,0.38013,0.25537,-0.91870;
14:28:28.642,0.37964,0.25317,-0.91748;
14:28:28.662,0.37866,0.25244,-0.91382;
14:28:28.682,0.37793,0.25244,-0.91113;
14:28:28.702,0.37891,0.25464,-0.91016;
14:28:28.722,0.37915,0.25635,-0.90942;
14:28:28.742,0.37817,0.25928,-0.91064;
14:28:28.762,0.37939,0.26025,-0.91064;
14:28:28.782,0.37622,0.25391,-0.91626;
14:28:28.802,0.37720,0.25342,-0.91699;
14:28:28.822,0.37842,0.25562,-0.91309;
14:28:28.842,0.37793,0.25806,-0.91187;
14:28:28.862,0.37671,0.25977,-0.91016;
14:28:28.882,0.37573,0.25854,-0.91138;
14:28:28.902,0.37549,0.25537,-0.91650;
14:28:28.922,0.37598,0.25317,-0.91772;
14:28:28.942,0.37622,0.25220,-0.91772;
14:28:28.962,0.37671,0.25195,-0.91504;
14:28:28.982,0.37817,0.25293,-0.91260;
14:28:29.002,0.37646,0.26123,-0.91064;
14:28:29.022,0.37622,0.25879,-0.91333;
14:28:29.042,0.37524,0.25586,-0.91797;
14:28:29.062,0.37500,0.25244,-0.91943;
14:28:29.082,0.37402,0.25342,-0.91846;
14:28:29.102,0.37402,0.25610,-0.91650;
14:28:29.122,0.37500,0.25781,-0.91602;
14:28:29.142,0.37427,0.26001,-0.91284;
14:28:29.162,0.37476,0.25635,-0.91309;
14:28:29.182,0.37500,0.25635,-0.91455;
14:28:29.202,0.37476,0.25708,-0.91504;
14:28:29.222,0.37476,0.25464,-0.91553;
14:28:29.242,0.37378,0.25464,-0.91528;
14:28:29.262,0.37573,0.25684,-0.91455;
14:28:29.282,0.37500,0.25732,-0.91382;
14:28:29.302,0.37402,0.25830,-0.91455;
14:28:29.322,0.37524,0.25684,-0.91357;
14:28:29.342,0.37573,0.25684,-0.91479;
14:28:29.362,0.37524,0.25806,-0.91406;
14:28:29.382,0.37378,0.25610,-0.91479;
14:28:29.402,0.37427,0.25684,-0.91357;
14:28:29.422,0.37476,0.25806,-0.91333;
14:28:29.442,0.37500,0.25830,-0.91357;
14:28:29.462,0.37549,0.25610,-0.91577;
14:28:29.482,0.37402,0.25366,-0.91382;
14:28:29.502,0.37646,0.25562,-0.91431;
14:28:29.522,0.37573,0.25586,-0.91382;
14:28:29.542,0.37280,0.25562,-0.91455;
14:28:29.562,0.37231,0.25806,-0.91284;
14:28:29.582,0.37378,0.26001,-0.91016;
14:28:29.602,0.37305,0.25732,-0.90991;
14:28:29.622,0.37402,0.25317,-0.91235;
14:28:29.642,0.37573,0.25757,-0.91870;
14:28:29.662,0.37451,0.25635,-0.92041;
14:28:29.682,0.37378,0.25024,-0.91553;
14:28:29.702,0.37354,0.24927,-0.91406;
14:28:29.722,0.37329,0.25293,-0.91504;
14:28:29.742,0.37378,0.25342,-0.91626;
14:28:29.762,0.37402,0.25562,-0.91577;
14:28:29.782,0.37378,0.25952,-0.91406;
14:28:29.802,0.37305,0.26074,-0.91309;
14:28:29.822,0.37280,0.26074,-0.91626;
14:28:29.842,0.37280,0.25537,-0.92139;
14:28:29.862,0.37305,0.25024,-0.93213;
14:28:29.882,0.37354,0.23755,-0.94482;
14:28:29.902,0.36938,0.21265,-0.93970;
14:28:29.922,0.36938,0.19556,-0.91602;
14:28:29.942,0.37061,0.27856,-0.90234;
14:28:29.962,0.36938,0.28101,-0.93164;
14:28:29.982,0.36133,0.23535,-0.95508;
14:28:30.002,0.35986,0.19727,-0.94849;
14:28:30.022,0.36523,0.20239,-0.91968;
14:28:30.042,0.37085,0.25439,-0.90747;
14:28:30.062,0.38037,0.28174,-0.95483;
14:28:30.082,0.38477,0.25879,-0.98242;
14:28:30.102,0.37402,0.21313,-0.91431;
14:28:30.122,0.36597,0.18701,-0.83716;
14:28:30.142,0.36426,0.23584,-0.83008;
14:28:30.162,0.37939,0.26245,-0.91309;
14:28:30.182,0.37646,0.21240,-1.00171;
14:28:30.202,0.34814,0.14185,-0.94971;
14:28:30.222,0.34448,0.13281,-0.78345;
14:28:30.242,0.35815,0.18774,-0.66235;
14:28:30.262,0.41699,0.19385,-0.69800;
14:28:30.282,0.45215,0.26074,-0.87891;
14:28:30.302,0.45923,0.37329,-1.06689;
14:28:30.322,0.45679,0.44873,-1.11816;
14:28:30.342,0.42773,0.50171,-1.04443;
14:28:30.362,0.41064,0.53345,-0.94531;
14:28:30.382,0.37769,0.53564,-0.86084;
14:28:30.402,0.33618,0.50684,-0.82153;
14:28:30.422,0.30981,0.45410,-0.83765;
14:28:30.442,0.29395,0.29980,-0.84521;
14:28:30.462,0.30200,0.26123,-0.85156;
14:28:30.482,0.33496,0.25684,-0.87012;
14:28:30.502,0.38281,0.28320,-0.84595;
14:28:30.522,0.39502,0.33667,-0.80957;
14:28:30.542,0.38135,0.39771,-0.84888;
14:28:30.562,0.34619,0.45581,-0.92017;
14:28:30.582,0.30884,0.45776,-0.95557;
14:28:30.602,0.28760,0.40674,-0.95874;
14:28:30.622,0.28638,0.38550,-0.95483;
14:28:30.642,0.30835,0.36938,-0.93994;
14:28:30.662,0.34253,0.34570,-0.90601;
14:28:30.682,0.36426,0.33862,-0.88257;
14:28:30.702,0.37256,0.33838,-0.90698;
14:28:30.722,0.37671,0.33887,-0.95825;
14:28:30.742,0.36597,0.31665,-0.95435;
14:28:30.762,0.35547,0.27808,-0.89624;
14:28:30.782,0.35083,0.25415,-0.85693;
14:28:30.802,0.35742,0.25684,-0.84717;
14:28:30.822,0.36792,0.26685,-0.87646;
14:28:30.842,0.37012,0.26709,-0.92822;
14:28:30.862,0.37402,0.27319,-0.91895;
14:28:30.882,0.36621,0.29834,-0.87915;
14:28:30.902,0.34961,0.32593,-0.88086;
14:28:30.922,0.33887,0.34790,-0.90308;
14:28:30.942,0.36377,0.35449,-0.89600;
14:28:30.962,0.36841,0.35986,-0.91431;
14:28:30.982,0.36084,0.33765,-0.93115;
14:28:31.002,0.33618,0.34839,-0.95923;
14:28:31.022,0.32642,0.37744,-0.98047;
14:28:31.042,0.32886,0.38623,-0.98804;
14:28:31.062,0.35132,0.35840,-0.95776;
14:28:31.082,0.34790,0.32739,-0.87109;
14:28:31.102,0.36475,0.29883,-0.81299;
14:28:31.122,0.37036,0.29614,-0.82349;
14:28:31.142,0.35107,0.33667,-0.87476;
14:28:31.162,0.34497,0.36255,-0.91968;
14:28:31.182,0.33838,0.34033,-0.90503;
14:28:31.202,0.34839,0.30078,-0.88989;
14:28:31.222,0.35791,0.28491,-0.88989;
14:28:31.242,0.36060,0.30200,-0.89551;
14:28:31.262,0.34448,0.30884,-0.89819;
14:28:31.282,0.33618,0.30200,-0.89893;
14:28:31.302,0.35083,0.29565,-0.89893;
14:28:31.322,0.36987,0.29663,-0.91016;
14:28:31.342,0.38452,0.26953,-0.92773;
14:28:31.362,0.39819,0.24219,-0.93384;
14:28:31.382,0.40405,0.23560,-0.92920;
14:28:31.402,0.39966,0.24438,-0.90625;
14:28:31.422,0.40576,0.25415,-0.87695;
14:28:31.442,0.42505,0.27686,-0.88477;
14:28:31.462,0.41919,0.27783,-0.89111;
14:28:31.482,0.40356,0.27637,-0.88574;
14:28:31.502,0.38623,0.28125,-0.88843;
14:28:31.522,0.37427,0.28979,-0.89551;
14:28:31.542,0.36719,0.29907,-0.91406;
14:28:31.562,0.36694,0.29858,-0.93311;
14:28:31.582,0.37134,0.30151,-0.93945;
14:28:31.602,0.37549,0.30103,-0.92383;
14:28:31.622,0.37866,0.27808,-0.89478;
14:28:31.642,0.37549,0.26489,-0.88623;
14:28:31.662,0.37354,0.25635,-0.89746;
14:28:31.682,0.37109,0.25122,-0.91968;
14:28:31.702,0.37329,0.24097,-0.92822;
14:28:31.722,0.37354,0.22607,-0.92041;
14:28:31.742,0.36938,0.23608,-0.91406;
14:28:31.762,0.36938,0.25195,-0.90479;
14:28:31.782,0.37280,0.26782,-0.90015;
14:28:31.802,0.38086,0.26929,-0.90356;
14:28:31.822,0.38721,0.26123,-0.90796;
14:28:31.842,0.39429,0.25854,-0.90991;
14:28:31.862,0.39697,0.25684,-0.91333;
14:28:31.882,0.38525,0.25879,-0.91772;
14:28:31.902,0.37402,0.26367,-0.90723;
14:28:31.922,0.36890,0.25317,-0.91382;
14:28:31.942,0.37085,0.25903,-0.92163;
14:28:31.962,0.37256,0.26587,-0.91846;
14:28:31.982,0.37744,0.26563,-0.91040;
14:28:32.002,0.38232,0.26367,-0.90991;
14:28:32.022,0.38477,0.26782,-0.91577;
14:28:32.042,0.37964,0.26855,-0.91406;
14:28:32.062,0.37476,0.26563,-0.90845;
14:28:32.082,0.37256,0.26611,-0.90527;
14:28:32.102,0.37354,0.26514,-0.90210;
14:28:32.122,0.37500,0.26074,-0.90259;
14:28:32.142,0.37500,0.25391,-0.90820;
14:28:32.162,0.37598,0.24805,-0.91772;
14:28:32.182,0.37500,0.24658,-0.92383;
14:28:32.202,0.37549,0.25049,-0.91846;
14:28:32.222,0.37500,0.25635,-0.91650;
14:28:32.242,0.37598,0.25903,-0.91748;
14:28:32.262,0.37476,0.26465,-0.91309;
14:28:32.282,0.37549,0.26270,-0.91113;
14:28:32.302,0.37256,0.26172,-0.90698;
14:28:32.322,0.37451,0.26538,-0.90210;
14:28:32.342,0.37524,0.26221,-0.90576;
14:28:32.362,0.37500,0.25854,-0.91309;
14:28:32.382,0.37573,0.25903,-0.91138;
14:28:32.402,0.37622,0.25732,-0.90894;
14:28:32.422,0.37207,0.25244,-0.90649;
14:28:32.442,0.36670,0.25952,-0.90918;
14:28:32.462,0.36841,0.26147,-0.91064;
14:28:32.482,0.36938,0.26025,-0.90894;
14:28:32.502,0.37598,0.26733,-0.90918;
14:28:32.522,0.38013,0.26514,-0.91260;
14:28:32.542,0.37524,0.26636,-0.92651;
14:28:32.562,0.37476,0.26392,-0.93164;
14:28:32.582,0.37061,0.25879,-0.92578;
14:28:32.602,0.37134,0.25684,-0.91772;
14:28:32.622,0.37305,0.25684,-0.91040;
14:28:32.642,0.37549,0.25757,-0.91309;
14:28:32.662,0.37598,0.25684,-0.91943;
14:28:32.682,0.37256,0.26270,-0.92090;
14:28:32.702,0.37231,0.26318,-0.91406;
14:28:32.722,0.37231,0.26123,-0.90723;
14:28:32.742,0.37598,0.26050,-0.91040;
14:28:32.762,0.37451,0.26196,-0.91528;
14:28:32.782,0.37012,0.25952,-0.92065;
14:28:32.802,0.36841,0.25732,-0.92017;
14:28:32.822,0.36938,0.26147,-0.90967;
14:28:32.842,0.37134,0.25903,-0.89868;
14:28:32.862,0.37231,0.25586,-0.89771;
14:28:32.882,0.37085,0.25708,-0.93286;
14:28:32.902,0.36230,0.25635,-0.93970;
14:28:32.922,0.36328,0.26367,-0.93091;
14:28:32.942,0.36011,0.26904,-0.92358;
14:28:32.962,0.36255,0.27100,-0.91479;
14:28:32.982,0.36646,0.27148,-0.91333;
14:28:33.002,0.36963,0.25708,-0.91553;
14:28:33.022,0.37280,0.23926,-0.91602;
14:28:33.042,0.37109,0.23560,-0.92212;
14:28:33.062,0.37061,0.24585,-0.92139;
14:28:33.082,0.36694,0.25586,-0.91870;
14:28:33.102,0.36475,0.26001,-0.91919;
14:28:33.122,0.36694,0.26294,-0.91187;
14:28:33.142,0.36646,0.26978,-0.90991;
14:28:33.162,0.36890,0.27173,-0.91235;
14:28:33.182,0.36865,0.27368,-0.91650;
14:28:33.202,0.36938,0.27100,-0.91821;
14:28:33.222,0.36987,0.26270,-0.91895;
14:28:33.242,0.36792,0.25854,-0.91724;
14:28:33.262,0.36523,0.25732,-0.91309;
14:28:33.282,0.36475,0.25806,-0.90991;
14:28:33.302,0.36670,0.25854,-0.90894;
14:28:33.322,0.36743,0.26392,-0.91138;
14:28:33.342,0.37329,0.26563,-0.91772;
14:28:33.362,0.37109,0.26343,-0.91553;
14:28:33.382,0.36938,0.26465,-0.91333;
14:28:33.402,0.36768,0.27148,-0.91211;
14:28:33.422,0.36670,0.27197,-0.91064;
14:28:33.442,0.36841,0.27100,-0.90796;
14:28:33.462,0.36938,0.27197,-0.91211;
14:28:33.482,0.37012,0.26563,-0.91748;
14:28:33.502,0.36987,0.26514,-0.91943;
14:28:33.522,0.37207,0.26685,-0.92432;
14:28:33.542,0.36963,0.26514,-0.92773;
14:28:33.562,0.36890,0.26270,-0.92310;
14:28:33.582,0.36963,0.26196,-0.91528;
14:28:33.602,0.37085,0.26831,-0.90869;
14:28:33.622,0.37231,0.27393,-0.90259;
14:28:33.642,0.37329,0.26953,-0.89771;
14:28:33.662,0.37329,0.27173,-0.89380;
14:28:33.682,0.37622,0.27393,-0.89331;
14:28:33.702,0.37720,0.27246,-0.89502;
14:28:33.722,0.37598,0.27173,-0.89478;
14:28:33.742,0.37427,0.27319,-0.88867;
14:28:33.762,0.37524,0.27246,-0.88135;
14:28:33.782,0.37524,0.26880,-0.88696;
14:28:33.802,0.37280,0.26392,-0.92212;
14:28:33.822,0.36841,0.26855,-0.93311;
14:28:33.842,0.37109,0.27075,-0.92676;
14:28:33.862,0.37451,0.27051,-0.91699;
14:28:33.882,0.37427,0.26831,-0.91260;
14:28:33.902,0.37256,0.26270,-0.90918;
14:28:33.922,0.37231,0.26099,-0.91040;
14:28:33.942,0.37231,0.25928,-0.91187;
14:28:33.962,0.37524,0.25659,-0.91455;
14:28:33.982,0.37573,0.26001,-0.91138;
14:28:34.002,0.37012,0.26929,-0.90723;
14:28:34.022,0.36865,0.27051,-0.91260;
14:28:34.042,0.36475,0.26514,-0.91528;
14:28:34.062,0.36694,0.26465,-0.92627;
14:28:34.082,0.37109,0.26294,-0.93140;
14:28:34.102,0.37085,0.26025,-0.92676;
14:28:34.122,0.37207,0.26465,-0.91406;
14:28:34.142,0.37036,0.27100,-0.90039;
14:28:34.162,0.37085,0.27490,-0.89404;
14:28:34.182,0.37061,0.27441,-0.89453;
14:28:34.202,0.37109,0.27197,-0.90063;
14:28:34.222,0.37134,0.26758,-0.90576;
14:28:34.242,0.37061,0.26123,-0.92065;
14:28:34.262,0.37183,0.25684,-0.93286;
14:28:34.282,0.37134,0.25415,-0.93701;
14:28:34.302,0.37280,0.27222,-0.89038;
14:28:34.322,0.37207,0.27734,-0.87158;
14:28:34.342,0.36719,0.27222,-0.88110;
14:28:34.362,0.36841,0.26782,-0.91553;
14:28:34.382,0.36890,0.27002,-0.95337;
14:28:34.402,0.37329,0.26538,-0.96826;
14:28:34.422,0.37378,0.26001,-0.94556;
14:28:34.442,0.37500,0.26611,-0.89966;
14:28:34.462,0.37231,0.26733,-0.86597;
14:28:34.482,0.36133,0.26318,-0.86157;
14:28:34.502,0.35791,0.26343,-0.88403;
14:28:34.522,0.36523,0.26489,-0.91797;
14:28:34.542,0.37085,0.26025,-0.95264;
14:28:34.562,0.37085,0.24585,-0.95654;
14:28:34.582,0.36865,0.25195,-0.93652;
14:28:34.602,0.36597,0.25000,-0.91919;
14:28:34.622,0.36523,0.24146,-0.89331;
14:28:34.642,0.36938,0.24194,-0.88354;
14:28:34.662,0.37744,0.24194,-0.89673;
14:28:34.682,0.37671,0.25684,-0.92358;
14:28:34.702,0.37842,0.26587,-0.94067;
14:28:34.722,0.37500,0.26538,-0.94800;
14:28:34.742,0.36865,0.24707,-0.94653;
14:28:34.762,0.36719,0.22974,-0.92920;
14:28:34.782,0.36719,0.22827,-0.90601;
14:28:34.802,0.36548,0.23999,-0.90869;
14:28:34.822,0.36694,0.25537,-0.90967;
14:28:34.842,0.36938,0.25659,-0.91382;
14:28:34.862,0.37061,0.25293,-0.92114;
14:28:34.882,0.36963,0.25098,-0.92896;
14:28:34.902,0.36890,0.24780,-0.92871;
14:28:34.922,0.36792,0.24219,-0.92725;
14:28:34.942,0.36377,0.24536,-0.92090;
14:28:34.962,0.36304,0.25244,-0.91919;
14:28:34.982,0.36499,0.25684,-0.91821;
14:28:35.002,0.36597,0.25806,-0.91846;
14:28:35.022,0.36694,0.25220,-0.92285;
14:28:35.042,0.36841,0.24536,-0.92261;
14:28:35.062,0.36768,0.24683,-0.92529;
14:28:35.082,0.36694,0.24878,-0.92188;
14:28:35.102,0.36646,0.24463,-0.91797;
14:28:35.122,0.36572,0.24487,-0.91602;
14:28:35.142,0.36572,0.25000,-0.91553;
14:28:35.162,0.36328,0.25098,-0.91895;
14:28:35.182,0.36621,0.24976,-0.92114;
14:28:35.202,0.36597,0.25244,-0.92212;
14:28:35.222,0.36646,0.25244,-0.92603;
14:28:35.242,0.36816,0.24805,-0.91748;
14:28:35.262,0.36328,0.24683,-0.91406;
14:28:35.282,0.36475,0.25732,-0.92065;
14:28:35.302,0.36621,0.26123,-0.92554;
14:28:35.322,0.36523,0.25488,-0.92871;
14:28:35.342,0.37036,0.26221,-0.93042;
14:28:35.362,0.36865,0.27466,-0.92114;
14:28:35.382,0.36133,0.27490,-0.92090;
14:28:35.402,0.36890,0.25610,-0.92920;
14:28:35.422,0.35986,0.21606,-0.93237;
14:28:35.442,0.35596,0.19385,-0.93481;
14:28:35.462,0.35986,0.18872,-0.92822;
14:28:35.482,0.35645,0.19995,-0.91382;
14:28:35.502,0.36450,0.22168,-0.91724;
14:28:35.522,0.36914,0.23511,-0.91968;
14:28:35.542,0.37402,0.23364,-0.91821;
14:28:35.562,0.37354,0.23120,-0.92017;
14:28:35.582,0.37183,0.22900,-0.92920;
14:28:35.602,0.37012,0.22998,-0.94165;
14:28:35.622,0.37256,0.23755,-0.95410;
14:28:35.642,0.36987,0.23315,-0.96680;
14:28:35.662,0.36890,0.22998,-0.95972;
14:28:35.682,0.36743,0.21875,-0.92847;
14:28:35.702,0.36523,0.20166,-0.89307;
14:28:35.722,0.35986,0.22827,-0.89429;
14:28:35.742,0.33862,0.25073,-0.91821;
14:28:35.762,0.35010,0.25928,-0.92554;
14:28:35.782,0.36621,0.24268,-0.92212;
14:28:35.802,0.37109,0.22803,-0.91602;
14:28:35.822,0.37402,0.23291,-0.91797;
14:28:35.842,0.37329,0.24805,-0.93115;
14:28:35.862,0.36816,0.25562,-0.93970;
14:28:35.882,0.36694,0.25513,-0.94165;
14:28:35.902,0.36743,0.24805,-0.94287;
14:28:35.922,0.36865,0.23608,-0.94360;
14:28:35.942,0.36963,0.22144,-0.93896;
14:28:35.962,0.37305,0.21680,-0.92505;
14:28:35.982,0.37524,0.22144,-0.90698;
14:28:36.002,0.37842,0.22827,-0.89331;
14:28:36.022,0.38013,0.24268,-0.88867;
14:28:36.042,0.38184,0.25757,-0.89795;
14:28:36.062,0.38013,0.26514,-0.91235;
14:28:36.082,0.37793,0.26196,-0.92383;
14:28:36.102,0.37524,0.25049,-0.93652;
14:28:36.122,0.37061,0.23657,-0.93872;
14:28:36.142,0.36890,0.22656,-0.92969;
14:28:36.162,0.36792,0.22510,-0.92651;
14:28:36.182,0.36572,0.23047,-0.92383;
14:28:36.202,0.36499,0.23511,-0.91821;
14:28:36.222,0.36841,0.25879,-0.92212;
14:28:36.242,0.36719,0.25903,-0.92505;
14:28:36.262,0.36865,0.26025,-0.92334;
14:28:36.282,0.37134,0.25732,-0.92236;
14:28:36.302,0.37012,0.24756,-0.92163;
14:28:36.322,0.36914,0.23877,-0.91675;
14:28:36.342,0.36963,0.23901,-0.91309;
14:28:36.362,0.37329,0.24438,-0.91113;
14:28:36.382,0.37769,0.24341,-0.90674;
14:28:36.402,0.38184,0.25732,-0.90625;
14:28:36.422,0.38501,0.26611,-0.91406;
14:28:36.442,0.37842,0.26685,-0.91968;
14:28:36.462,0.37476,0.26904,-0.92114;
14:28:36.482,0.37183,0.25952,-0.92261;
14:28:36.502,0.36890,0.25195,-0.91724;
14:28:36.522,0.37036,0.24268,-0.91064;
14:28:36.542,0.37134,0.23853,-0.90601;
14:28:36.562,0.37329,0.24243,-0.90381;
14:28:36.582,0.37427,0.25195,-0.90356;
14:28:36.602,0.37402,0.26196,-0.90552;
14:28:36.622,0.37427,0.27148,-0.91382;
14:28:36.642,0.37158,0.27124,-0.92212;
14:28:36.662,0.36890,0.26123,-0.92261;
14:28:36.682,0.36816,0.25195,-0.91748;
14:28:36.702,0.36963,0.24951,-0.90942;
14:28:36.722,0.37646,0.25610,-0.91138;
14:28:36.742,0.37720,0.25854,-0.90918;
14:28:36.762,0.38232,0.26221,-0.90405;
14:28:36.782,0.38354,0.26270,-0.90454;
14:28:36.802,0.38013,0.25488,-0.90869;
14:28:36.822,0.37549,0.25220,-0.91211;
14:28:36.842,0.37183,0.25562,-0.91455;
14:28:36.862,0.37207,0.25952,-0.91235;
14:28:36.882,0.37256,0.25830,-0.91040;
14:28:36.902,0.37476,0.25171,-0.91211;
14:28:36.922,0.37573,0.24829,-0.92163;
14:28:36.942,0.37769,0.24390,-0.92480;
14:28:36.962,0.37598,0.24170,-0.92407;
14:28:36.982,0.37451,0.24512,-0.92139;
14:28:37.002,0.37524,0.25317,-0.91504;
14:28:37.022,0.37231,0.25854,-0.90967;
14:28:37.042,0.37134,0.26025,-0.91089;
14:28:37.062,0.37158,0.25854,-0.91211;
14:28:37.082,0.37109,0.25635,-0.91455;
14:28:37.102,0.36963,0.24731,-0.92065;
14:28:37.122,0.37207,0.23413,-0.92334;
14:28:37.142,0.37329,0.22778,-0.92676;
14:28:37.162,0.37354,0.23364,-0.92798;
14:28:37.182,0.37378,0.25977,-0.91187;
14:28:37.202,0.36792,0.26172,-0.90942;
14:28:37.222,0.36694,0.25659,-0.91040;
14:28:37.242,0.36914,0.24756,-0.91650;
14:28:37.262,0.37061,0.23755,-0.92090;
14:28:37.282,0.37134,0.23364,-0.92139;
14:28:37.302,0.37256,0.23560,-0.92310;
14:28:37.322,0.37378,0.24023,-0.92139;
14:28:37.342,0.37598,0.25146,-0.91895;
14:28:37.362,0.37671,0.25513,-0.91846;
14:28:37.382,0.37280,0.25415,-0.91382;
14:28:37.402,0.37134,0.25146,-0.91602;
14:28:37.422,0.36963,0.24512,-0.91895;
14:28:37.442,0.36914,0.24170,-0.91895;
14:28:37.462,0.36987,0.24463,-0.92090;
14:28:37.482,0.37085,0.24731,-0.92383;
14:28:37.502,0.36938,0.24878,-0.92432;
14:28:37.522,0.36963,0.24927,-0.92163;
14:28:37.542,0.36865,0.25171,-0.92041;
14:28:37.562,0.36694,0.24438,-0.92236;
14:28:37.582,0.36719,0.23682,-0.92432;
14:28:37.602,0.36768,0.23682,-0.92212;
14:28:37.622,0.36816,0.23511,-0.92163;
14:28:37.642,0.36987,0.23682,-0.92480;
14:28:37.662,0.36816,0.24341,-0.92236;
14:28:37.682,0.36694,0.24414,-0.91821;
14:28:37.702,0.36841,0.24414,-0.91528;
14:28:37.722,0.36890,0.23950,-0.92065;
14:28:37.742,0.36768,0.23633,-0.92798;
14:28:37.762,0.36743,0.23389,-0.93091;
14:28:37.782,0.36597,0.23218,-0.92944;
14:28:37.802,0.36792,0.23389,-0.92627;
14:28:37.822,0.36768,0.23486,-0.92627;
14:28:37.842,0.36670,0.23486,-0.92383;
14:28:37.862,0.36694,0.23730,-0.92578;
14:28:37.882,0.36670,0.23901,-0.92480;
14:28:37.902,0.36670,0.24390,-0.92578;
14:28:37.922,0.36523,0.24194,-0.92725;
14:28:37.942,0.36279,0.23901,-0.92603;
14:28:37.962,0.36255,0.23315,-0.92676;
14:28:37.982,0.36230,0.22852,-0.92896;
14:28:38.002,0.36255,0.23291,-0.92529;
14:28:38.022,0.36426,0.23706,-0.92310;
14:28:38.042,0.36475,0.24072,-0.92651;
14:28:38.062,0.36499,0.24097,-0.92554;
14:28:38.082,0.36475,0.24292,-0.92603;
14:28:38.102,0.36523,0.24121,-0.92773;
14:28:38.122,0.36450,0.23535,-0.93091;
14:28:38.142,0.36523,0.23340,-0.92798;
14:28:38.162,0.36646,0.23657,-0.92090;
14:28:38.182,0.36572,0.24170,-0.92041;
14:28:38.202,0.36548,0.24292,-0.92578;
14:28:38.222,0.36548,0.24097,-0.92773;
14:28:38.242,0.36328,0.23853,-0.92773;
14:28:38.262,0.36182,0.23462,-0.92969;
14:28:38.282,0.36328,0.23584,-0.93091;
14:28:38.302,0.36206,0.23682,-0.93164;
14:28:38.322,0.36377,0.23706,-0.93066;
14:28:38.342,0.36597,0.24243,-0.92798;
14:28:38.362,0.36475,0.24316,-0.92920;
14:28:38.382,0.36426,0.23975,-0.93018;
14:28:38.402,0.36426,0.23706,-0.92798;
14:28:38.422,0.36426,0.23755,-0.92554;
14:28:38.442,0.36377,0.23779,-0.92529;
14:28:38.462,0.36426,0.23804,-0.92212;
14:28:38.482,0.36572,0.23999,-0.92261;
14:28:38.502,0.36572,0.24219,-0.92456;
14:28:38.522,0.36768,0.24243,-0.92383;
14:28:38.542,0.36719,0.24146,-0.92139;
14:28:38.562,0.36475,0.24072,-0.92334;
14:28:38.582,0.36499,0.24390,-0.92676;
14:28:38.602,0.36475,0.24756,-0.92773;
14:28:38.622,0.36597,0.23999,-0.92651;
14:28:38.642,0.36621,0.23950,-0.92554;
14:28:38.662,0.36816,0.24048,-0.92432;
14:28:38.682,0.36938,0.24390,-0.92041;
14:28:38.702,0.36841,0.24365,-0.91992;
14:28:38.722,0.36548,0.24390,-0.92041;
14:28:38.742,0.36353,0.25122,-0.92163;
14:28:38.762,0.36523,0.25220,-0.92212;
14:28:38.782,0.36499,0.24097,-0.92334;
14:28:38.802,0.36694,0.23828,-0.92505;
14:28:38.822,0.36963,0.24341,-0.92358;
14:28:38.842,0.36865,0.24243,-0.92358;
14:28:38.862,0.36963,0.24536,-0.91846;
14:28:38.882,0.36938,0.24731,-0.91895;
14:28:38.902,0.36938,0.24463,-0.91748;
14:28:38.922,0.36890,0.24829,-0.91919;
14:28:38.942,0.36865,0.24951,-0.92334;
14:28:38.962,0.36914,0.24951,-0.92188;
14:28:38.982,0.36890,0.25024,-0.91992;
14:28:39.002,0.36841,0.25098,-0.91821;
14:28:39.022,0.36914,0.25269,-0.91797;
14:28:39.042,0.37012,0.25024,-0.91943;
14:28:39.062,0.36963,0.24731,-0.91870;
14:28:39.082,0.37183,0.25317,-0.91675;
14:28:39.102,0.37231,0.25586,-0.91797;
14:28:39.122,0.36987,0.25488,-0.91650;
14:28:39.142,0.37256,0.24902,-0.91504;
14:28:39.162,0.37427,0.24414,-0.91260;
14:28:39.182,0.37451,0.24219,-0.91479;
14:28:39.202,0.37500,0.24194,-0.91333;
14:28:39.222,0.37598,0.24512,-0.90625;
14:28:39.242,0.37573,0.25146,-0.90869;
14:28:39.262,0.37280,0.25610,-0.91895;
14:28:39.282,0.37109,0.25415,-0.92529;
14:28:39.302,0.36597,0.24902,-0.92578;
14:28:39.322,0.36499,0.23901,-0.92041;
14:28:39.342,0.37085,0.23364,-0.91528;
14:28:39.362,0.37305,0.23975,-0.91675;
14:28:39.382,0.37769,0.24927,-0.92114;
14:28:39.402,0.37793,0.25806,-0.92773;
14:28:39.422,0.37524,0.25854,-0.92725;
14:28:39.442,0.37354,0.25439,-0.92236;
14:28:39.462,0.37134,0.24976,-0.91455;
14:28:39.482,0.36865,0.24536,-0.90967;
14:28:39.502,0.36816,0.23999,-0.90894;
14:28:39.522,0.37036,0.23315,-0.91528;
14:28:39.542,0.37305,0.22949,-0.92554;
14:28:39.562,0.37354,0.23169,-0.93359;
14:28:39.582,0.37183,0.23438,-0.93481;
14:28:39.602,0.37207,0.23779,-0.92407;
14:28:39.622,0.37231,0.25537,-0.91309;
14:28:39.642,0.36938,0.25439,-0.91577;
14:28:39.662,0.37158,0.23315,-0.91650;
14:28:39.682,0.37329,0.22217,-0.91577;
14:28:39.702,0.37573,0.23926,-0.91821;
14:28:39.722,0.37231,0.25732,-0.91577;
14:28:39.742,0.37012,0.26538,-0.91040;
14:28:39.762,0.37280,0.26807,-0.91455;
14:28:39.782,0.37329,0.26294,-0.91968;
14:28:39.802,0.37207,0.23975,-0.92334;
14:28:39.822,0.36963,0.20996,-0.92529;
14:28:39.842,0.36841,0.20020,-0.92505;
14:28:39.862,0.36841,0.20337,-0.92554;
14:28:39.882,0.36865,0.21289,-0.92627;
14:28:39.902,0.36938,0.22070,-0.92920;
14:28:39.922,0.37207,0.22046,-0.92749;
14:28:39.942,0.37207,0.21655,-0.92847;
14:28:39.962,0.37036,0.22119,-0.92700;
14:28:39.982,0.36890,0.23535,-0.92456;
14:28:40.002,0.36743,0.24072,-0.92285;
14:28:40.022,0.36792,0.24219,-0.92529;
14:28:40.042,0.36865,0.23706,-0.92798;
14:28:40.062,0.36841,0.23242,-0.92090;
14:28:40.082,0.37158,0.23462,-0.91553;
14:28:40.102,0.37549,0.24780,-0.91406;
14:28:40.122,0.37183,0.24976,-0.92065;
14:28:40.142,0.37012,0.23340,-0.92285;
14:28:40.162,0.36792,0.22217,-0.92407;
14:28:40.182,0.36792,0.22412,-0.92188;
14:28:40.202,0.37085,0.22852,-0.92163;
14:28:40.222,0.37061,0.23828,-0.92041;
14:28:40.242,0.37085,0.23926,-0.92090;
14:28:40.262,0.37158,0.23438,-0.91772;
14:28:40.282,0.37109,0.23218,-0.92065;
14:28:40.302,0.37061,0.23315,-0.92651;
14:28:40.322,0.36694,0.23462,-0.92871;
14:28:40.342,0.36548,0.23389,-0.93066;
14:28:40.362,0.36743,0.23755,-0.92627;
14:28:40.382,0.36816,0.23828,-0.92383;
14:28:40.402,0.36987,0.23950,-0.92334;
14:28:40.422,0.36938,0.24072,-0.92261;
14:28:40.442,0.36914,0.23926,-0.92188;
14:28:40.462,0.36890,0.23413,-0.92188;
14:28:40.482,0.36890,0.23193,-0.92383;
14:28:40.502,0.37012,0.23218,-0.92651;
14:28:40.522,0.36963,0.23584,-0.92627;
14:28:40.542,0.36792,0.23828,-0.92407;
14:28:40.562,0.36792,0.23657,-0.92285;
14:28:40.582,0.36816,0.23999,-0.91846;
14:28:40.602,0.36719,0.23682,-0.92261;
14:28:40.622,0.36768,0.23853,-0.92773;
14:28:40.642,0.36743,0.23804,-0.92969;
14:28:40.662,0.36792,0.23047,-0.92554;
14:28:40.682,0.36719,0.22559,-0.92383;
14:28:40.702,0.36865,0.22803,-0.92432;
14:28:40.722,0.36816,0.23511,-0.92285;
14:28:40.742,0.36670,0.23706,-0.92285;
14:28:40.762,0.36499,0.23657,-0.92358;
14:28:40.782,0.36475,0.24170,-0.92090;
14:28:40.802,0.36743,0.24243,-0.91675;
14:28:40.822,0.36914,0.23682,-0.92041;
14:28:40.842,0.36987,0.23145,-0.92871;
14:28:40.862,0.36841,0.22925,-0.93286;
14:28:40.882,0.36841,0.22534,-0.93018;
14:28:40.902,0.36597,0.22559,-0.92773;
14:28:40.922,0.36597,0.22729,-0.92407;
14:28:40.942,0.36670,0.23218,-0.92017;
14:28:40.962,0.36768,0.23560,-0.92285;
14:28:40.982,0.36792,0.23584,-0.92383;
14:28:41.002,0.36646,0.23413,-0.92407;
14:28:41.022,0.36670,0.23413,-0.92383;
14:28:41.042,0.36572,0.23804,-0.92456;
14:28:41.062,0.36646,0.23730,-0.93140;
14:28:41.082,0.36523,0.23267,-0.92920;
14:28:41.102,0.36792,0.23608,-0.92334;
14:28:41.122,0.36621,0.23560,-0.92578;
14:28:41.142,0.36353,0.23706,-0.92651;
14:28:41.162,0.36401,0.23462,-0.92749;
14:28:41.182,0.36450,0.22925,-0.92676;
14:28:41.202,0.36572,0.22607,-0.92480;
14:28:41.222,0.36597,0.22998,-0.92603;
14:28:41.242,0.36523,0.23218,-0.92529;
14:28:41.262,0.36743,0.23315,-0.92529;
14:28:41.282,0.36938,0.23511,-0.92358;
14:28:41.302,0.36841,0.23511,-0.92383;
14:28:41.322,0.36597,0.23389,-0.92603;
14:28:41.342,0.36426,0.23462,-0.92480;
14:28:41.362,0.36304,0.23584,-0.92505;
14:28:41.382,0.36353,0.23657,-0.92969;
14:28:41.402,0.36499,0.23486,-0.93188;
14:28:41.422,0.36523,0.23364,-0.92896;
14:28:41.442,0.36523,0.23340,-0.92798;
14:28:41.462,0.36450,0.22998,-0.92529;
14:28:41.482,0.36450,0.23169,-0.92578;
14:28:41.502,0.36426,0.23291,-0.92676;
14:28:41.522,0.36426,0.23315,-0.92627;
14:28:41.542,0.36401,0.23364,-0.92578;
14:28:41.562,0.36377,0.23242,-0.92676;
14:28:41.582,0.36450,0.23340,-0.92700;
14:28:41.602,0.36450,0.23364,-0.92529;
14:28:41.622,0.36572,0.23315,-0.92578;
14:28:41.642,0.36475,0.23291,-0.92603;
14:28:41.662,0.36426,0.23193,-0.92676;
14:28:41.682,0.36401,0.23438,-0.92773;
14:28:41.702,0.36328,0.23755,-0.92920;
14:28:41.722,0.36426,0.23657,-0.92896;
14:28:41.742,0.36572,0.22998,-0.92627;
14:28:41.762,0.36572,0.23413,-0.92529;
14:28:41.782,0.36475,0.23315,-0.92529;
14:28:41.802,0.36206,0.23389,-0.92603;
14:28:41.822,0.36279,0.23901,-0.92456;
14:28:41.842,0.36353,0.23926,-0.92310;
14:28:41.862,0.36377,0.23511,-0.92432;
14:28:41.882,0.36597,0.23608,-0.93115;
14:28:41.902,0.36572,0.22925,-0.93164;
14:28:41.922,0.36304,0.22803,-0.92920;
14:28:41.942,0.36401,0.22852,-0.92725;
14:28:41.962,0.36401,0.22827,-0.92212;
14:28:41.982,0.36499,0.23096,-0.92603;
14:28:42.002,0.36401,0.23633,-0.92920;
14:28:42.022,0.36304,0.24121,-0.92383;
14:28:42.042,0.36328,0.23999,-0.92700;
14:28:42.062,0.36304,0.23706,-0.92847;
14:28:42.082,0.36279,0.23193,-0.92822;
14:28:42.102,0.36279,0.22778,-0.92773;
14:28:42.122,0.36450,0.23145,-0.92480;
14:28:42.142,0.36475,0.23779,-0.92627;
14:28:42.162,0.36401,0.24048,-0.92554;
14:28:42.182,0.36304,0.23901,-0.92896;
14:28:42.202,0.36328,0.23682,-0.93042;
14:28:42.222,0.36328,0.23218,-0.92920;
14:28:42.242,0.36401,0.22949,-0.92920;
14:28:42.262,0.36353,0.23145,-0.92920;
14:28:42.282,0.36401,0.23364,-0.92896;
14:28:42.302,0.36401,0.23730,-0.92700;
14:28:42.322,0.36548,0.23682,-0.92407;
14:28:42.342,0.36597,0.23926,-0.92432;
14:28:42.362,0.36572,0.24023,-0.92285;
14:28:42.382,0.36523,0.23950,-0.92383;
14:28:42.402,0.36353,0.24121,-0.92725;
14:28:42.422,0.36377,0.24023,-0.92505;
14:28:42.442,0.36279,0.23828,-0.92603;
14:28:42.462,0.36499,0.23999,-0.92432;
14:28:42.482,0.36426,0.24121,-0.92529;
14:28:42.502,0.36450,0.24121,-0.92627;
14:28:42.522,0.36450,0.23901,-0.92310;
14:28:42.542,0.36621,0.23901,-0.92334;
14:28:42.562,0.36621,0.23901,-0.92554;
14:28:42.582,0.36548,0.23804,-0.92700;
14:28:42.602,0.36597,0.23804,-0.92578;
14:28:42.622,0.36621,0.24121,-0.92505;
14:28:42.642,0.36719,0.24146,-0.92358;
14:28:42.662,0.36694,0.24219,-0.92261;
14:28:42.682,0.36694,0.24048,-0.92383;
14:28:42.702,0.36597,0.23950,-0.92188;
14:28:42.722,0.36694,0.24463,-0.92212;
14:28:42.742,0.36694,0.24561,-0.92480;
14:28:42.762,0.36768,0.24536,-0.92505;
14:28:42.782,0.36816,0.24243,-0.92310;
14:28:42.802,0.36572,0.23877,-0.92578;
14:28:42.822,0.36670,0.23853,-0.92456;
14:28:42.842,0.36914,0.24292,-0.91895;
14:28:42.862,0.37012,0.24561,-0.91724;
14:28:42.882,0.36938,0.24292,-0.91968;
14:28:42.902,0.36694,0.24316,-0.92456;
14:28:42.922,0.36523,0.24902,-0.92212;
14:28:42.942,0.36816,0.25122,-0.91797;
14:28:42.962,0.36865,0.23828,-0.92188;
14:28:42.982,0.37061,0.23975,-0.92236;
14:28:43.002,0.36938,0.24048,-0.92090;
14:28:43.022,0.36938,0.23877,-0.91943;
14:28:43.042,0.36938,0.23779,-0.92163;
14:28:43.062,0.36987,0.23950,-0.92065;
14:28:43.082,0.36865,0.24219,-0.91943;
14:28:43.102,0.36743,0.24609,-0.91797;
14:28:43.122,0.36792,0.24902,-0.91992;
14:28:43.142,0.36768,0.24731,-0.92212;
14:28:43.162,0.36841,0.24316,-0.92505;
14:28:43.182,0.37012,0.23828,-0.92554;
14:28:43.202,0.36890,0.23657,-0.92529;
14:28:43.222,0.36841,0.24170,-0.92505;
14:28:43.242,0.36841,0.24902,-0.91797;
14:28:43.262,0.36743,0.24561,-0.91797;
14:28:43.282,0.36792,0.24170,-0.92407;
14:28:43.302,0.36792,0.24072,-0.92554;
14:28:43.322,0.36792,0.23706,-0.92529;
14:28:43.342,0.36865,0.23462,-0.92505;
14:28:43.362,0.36914,0.23315,-0.92578;
14:28:43.382,0.36768,0.23486,-0.92188;
14:28:43.402,0.36865,0.23950,-0.92114;
14:28:43.422,0.36841,0.24438,-0.92383;
14:28:43.442,0.36841,0.24390,-0.92236;
14:28:43.462,0.36914,0.24365,-0.92236;
14:28:43.482,0.36694,0.23779,-0.92334;
14:28:43.502,0.36694,0.23901,-0.92603;
14:28:43.522,0.36768,0.23926,-0.92480;
14:28:43.542,0.36743,0.24243,-0.92163;
14:28:43.562,0.36743,0.24170,-0.92358;
14:28:43.582,0.36865,0.24023,-0.92358;
14:28:43.602,0.36694,0.23926,-0.92456;
14:28:43.622,0.36670,0.23828,-0.92480;
14:28:43.642,0.36670,0.23950,-0.92480;
14:28:43.662,0.36719,0.23804,-0.92236;
14:28:43.682,0.36719,0.23706,-0.92212;
14:28:43.702,0.36792,0.23584,-0.92529;
14:28:43.722,0.36816,0.23608,-0.92480;
14:28:43.742,0.36719,0.23730,-0.92358;
14:28:43.762,0.36719,0.23828,-0.92578;
14:28:43.782,0.36768,0.23853,-0.92407;
14:28:43.802,0.36768,0.24048,-0.92505;
14:28:43.822,0.36572,0.24170,-0.92407;
14:28:43.842,0.36694,0.24292,-0.92334;
14:28:43.862,0.36597,0.23975,-0.92725;
14:28:43.882,0.36475,0.23340,-0.92676;
14:28:43.902,0.36401,0.23242,-0.92700;
14:28:43.922,0.36597,0.23315,-0.92505;
14:28:43.942,0.36914,0.23389,-0.92114;
14:28:43.962,0.36597,0.23267,-0.92139;
14:28:43.982,0.36548,0.23389,-0.92212;
14:28:44.002,0.36548,0.24194,-0.92407;
14:28:44.022,0.36670,0.23560,-0.92725;
14:28:44.042,0.36694,0.23291,-0.93213;
14:28:44.062,0.36621,0.22998,-0.93164;
14:28:44.082,0.36548,0.22778,-0.92798;
14:28:44.102,0.36499,0.22803,-0.92212;
14:28:44.122,0.36572,0.23267,-0.92090;
14:28:44.142,0.36621,0.23560,-0.92480;
14:28:44.162,0.36572,0.23779,-0.92456;
14:28:44.182,0.36572,0.23804,-0.92578;
14:28:44.202,0.36597,0.23877,-0.92603;
14:28:44.222,0.36450,0.23975,-0.92578;
14:28:44.242,0.36499,0.23682,-0.92798;
14:28:44.262,0.36523,0.23389,-0.92822;
14:28:44.282,0.36279,0.23120,-0.92920;
14:28:44.302,0.36450,0.23364,-0.92480;
14:28:44.322,0.36523,0.24048,-0.92505;
14:28:44.342,0.36499,0.24048,-0.92456;
14:28:44.362,0.36450,0.23853,-0.92529;
14:28:44.382,0.36377,0.23657,-0.92993;
14:28:44.402,0.36377,0.23169,-0.92749;
14:28:44.422,0.36377,0.22974,-0.92798;
14:28:44.442,0.36401,0.22900,-0.92432;
14:28:44.462,0.36279,0.22778,-0.92480;
14:28:44.482,0.36499,0.23193,-0.92603;
14:28:44.502,0.36450,0.23999,-0.92456;
14:28:44.522,0.36304,0.23755,-0.92651;
14:28:44.542,0.36304,0.23438,-0.92627;
14:28:44.562,0.36279,0.23291,-0.92700;
14:28:44.582,0.36377,0.23486,-0.92529;
14:28:44.602,0.36328,0.23584,-0.92651;
14:28:44.622,0.36328,0.23511,-0.92627;
14:28:44.642,0.36475,0.23267,-0.92407;
14:28:44.662,0.36426,0.23169,-0.92480;
14:28:44.682,0.36499,0.23340,-0.92651;
14:28:44.702,0.36426,0.23584,-0.92651;
14:28:44.722,0.36279,0.23828,-0.92871;
14:28:44.742,0.36279,0.23657,-0.92603;
14:28:44.762,0.36450,0.23438,-0.92505;
14:28:44.782,0.36499,0.23242,-0.92529;
14:28:44.802,0.36328,0.23022,-0.92456;
14:28:44.822,0.36279,0.23389,-0.92749;
14:28:44.842,0.36255,0.23389,-0.92725;
14:28:44.862,0.36255,0.23291,-0.92749;
14:28:44.882,0.36450,0.23560,-0.92749;
14:28:44.902,0.36475,0.23804,-0.92773;
14:28:44.922,0.36377,0.23853,-0.92700;
14:28:44.942,0.36328,0.23730,-0.92798;
14:28:44.962,0.36377,0.23560,-0.92676;
14:28:44.982,0.36230,0.22827,-0.92725;
14:28:45.002,0.36621,0.23022,-0.92822;
14:28:45.022,0.36475,0.23022,-0.92676;
14:28:45.042,0.36377,0.23364,-0.92529;
14:28:45.062,0.36206,0.23730,-0.92358;
14:28:45.082,0.36255,0.24194,-0.92139;
14:28:45.102,0.36279,0.24072,-0.92163;
14:28:45.122,0.36401,0.23535,-0.92700;
14:28:45.142,0.36450,0.23315,-0.93066;
14:28:45.162,0.36328,0.23193,-0.93115;
14:28:45.182,0.36230,0.22949,-0.92969;
14:28:45.202,0.36182,0.22754,-0.92676;
14:28:45.222,0.36353,0.23071,-0.92700;
14:28:45.242,0.36401,0.22974,-0.92944;
14:28:45.262,0.36279,0.23169,-0.93140;
14:28:45.282,0.36279,0.23779,-0.93018;
14:28:45.302,0.36279,0.24048,-0.92773;
14:28:45.322,0.36206,0.24170,-0.92944;
14:28:45.342,0.36108,0.23926,-0.92773;
14:28:45.362,0.36206,0.23315,-0.92700;
14:28:45.382,0.36353,0.23047,-0.92896;
14:28:45.402,0.36475,0.23193,-0.92676;
14:28:45.422,0.36426,0.23755,-0.92725;
14:28:45.442,0.36304,0.23975,-0.92725;
14:28:45.462,0.36133,0.24146,-0.92847;
14:28:45.482,0.36133,0.23950,-0.93066;
14:28:45.502,0.36304,0.23218,-0.92969;
14:28:45.522,0.36353,0.23169,-0.93066;
14:28:45.542,0.36328,0.23267,-0.92871;
14:28:45.562,0.36401,0.23462,-0.92529;
14:28:45.582,0.36572,0.24243,-0.92358;
14:28:45.602,0.36646,0.24341,-0.92383;
14:28:45.622,0.36548,0.24292,-0.92578;
14:28:45.642,0.36426,0.24121,-0.92651;
14:28:45.662,0.36523,0.23804,-0.92603;
14:28:45.682,0.36597,0.23730,-0.92505;
14:28:45.702,0.36499,0.24023,-0.92651;
14:28:45.722,0.36426,0.24121,-0.92896;
14:28:45.742,0.36401,0.24097,-0.92847;
14:28:45.762,0.36548,0.24438,-0.92505;
14:28:45.782,0.36621,0.24341,-0.92358;
14:28:45.802,0.36572,0.24146,-0.92432;
14:28:45.822,0.36572,0.24292,-0.92358;
14:28:45.842,0.36548,0.24243,-0.92407;
14:28:45.862,0.36597,0.23901,-0.92505;
14:28:45.882,0.36646,0.23779,-0.92383;
14:28:45.902,0.36792,0.23975,-0.92188;
14:28:45.922,0.36792,0.23999,-0.92285;
14:28:45.942,0.36694,0.23975,-0.92432;
14:28:45.962,0.36792,0.24390,-0.92212;
14:28:45.982,0.36841,0.24731,-0.92236;
14:28:46.002,0.36938,0.24609,-0.92407;
14:28:46.022,0.36914,0.24097,-0.92358;
14:28:46.042,0.36865,0.24097,-0.92139;
14:28:46.062,0.37012,0.24268,-0.91870;
14:28:46.082,0.37134,0.23877,-0.91797;
14:28:46.102,0.37085,0.23682,-0.91821;
14:28:46.122,0.37061,0.24170,-0.91846;
14:28:46.142,0.37158,0.23877,-0.92334;
14:28:46.162,0.37231,0.23804,-0.92456;
14:28:46.182,0.37183,0.24243,-0.92212;
14:28:46.202,0.37183,0.24121,-0.92017;
14:28:46.222,0.37256,0.23853,-0.91724;
14:28:46.242,0.37256,0.23804,-0.91772;
14:28:46.262,0.37207,0.23950,-0.91821;
14:28:46.282,0.37231,0.23901,-0.91528;
14:28:46.302,0.37378,0.24414,-0.91187;
14:28:46.322,0.37354,0.24829,-0.91333;
14:28:46.342,0.37109,0.24756,-0.91455;
14:28:46.362,0.37158,0.24316,-0.91797;
14:28:46.382,0.37109,0.23755,-0.92236;
14:28:46.402,0.37134,0.24023,-0.91699;
14:28:46.422,0.37280,0.24731,-0.91602;
14:28:46.442,0.37109,0.24707,-0.91821;
14:28:46.462,0.37012,0.24487,-0.92090;
14:28:46.482,0.37207,0.23438,-0.92261;
14:28:46.502,0.37256,0.23071,-0.92212;
14:28:46.522,0.37061,0.23193,-0.91943;
14:28:46.542,0.37036,0.23633,-0.92114;
14:28:46.562,0.37256,0.24072,-0.92358;
14:28:46.582,0.37134,0.24341,-0.92358;
14:28:46.602,0.37109,0.24341,-0.92114;
14:28:46.622,0.37134,0.24097,-0.92065;
14:28:46.642,0.37061,0.23804,-0.92188;
14:28:46.662,0.36987,0.23706,-0.92212;
14:28:46.682,0.37158,0.23877,-0.92334;
14:28:46.702,0.37061,0.24072,-0.92261;
14:28:46.722,0.36987,0.24097,-0.92334;
14:28:46.742,0.37012,0.24097,-0.92700;
14:28:46.762,0.36816,0.23999,-0.92480;
14:28:46.782,0.36841,0.23853,-0.92310;
14:28:46.802,0.36890,0.23706,-0.92358;
14:28:46.822,0.36987,0.23535,-0.92358;
14:28:46.842,0.37085,0.23560,-0.92261;
14:28:46.862,0.37134,0.23682,-0.92432;
14:28:46.882,0.37085,0.23730,-0.92383;
14:28:46.902,0.37036,0.23633,-0.92505;
14:28:46.922,0.37012,0.23413,-0.92285;
14:28:46.942,0.36890,0.23438,-0.92041;
14:28:46.962,0.37061,0.23853,-0.92163;
14:28:46.982,0.36719,0.23633,-0.92456;
14:28:47.002,0.36621,0.24292,-0.92456;
14:28:47.022,0.36792,0.24390,-0.92261;
14:28:47.042,0.36816,0.23657,-0.92505;
14:28:47.062,0.36816,0.23096,-0.92920;
14:28:47.082,0.36865,0.22949,-0.93066;
14:28:47.102,0.36792,0.22681,-0.92993;
14:28:47.122,0.36743,0.22900,-0.92578;
14:28:47.142,0.36816,0.23096,-0.92456;
14:28:47.162,0.36938,0.23193,-0.92310;
14:28:47.182,0.36865,0.23633,-0.92383;
14:28:47.202,0.36743,0.23779,-0.92432;
14:28:47.222,0.36865,0.23853,-0.92334;
14:28:47.242,0.36816,0.23730,-0.92310;
14:28:47.262,0.36816,0.23706,-0.92358;
14:28:47.282,0.36890,0.23706,-0.92578;
14:28:47.302,0.36694,0.23560,-0.92651;
14:28:47.322,0.36646,0.23560,-0.92114;
14:28:47.342,0.36646,0.23975,-0.91870;
14:28:47.362,0.36646,0.23877,-0.92212;
14:28:47.382,0.36572,0.23535,-0.92505;
14:28:47.402,0.36646,0.23730,-0.92676;
14:28:47.422,0.37036,0.23657,-0.92920;
14:28:47.442,0.37207,0.23682,-0.94458;
14:28:47.462,0.37036,0.23511,-0.95776;
14:28:47.482,0.36328,0.22119,-0.90503;
14:28:47.502,0.36279,0.23438,-0.88599;
14:28:47.522,0.36426,0.25220,-0.89087;
14:28:47.542,0.36743,0.24438,-0.91138;
14:28:47.562,0.37036,0.23267,-0.92847;
14:28:47.582,0.37378,0.22656,-0.93481;
14:28:47.602,0.37451,0.22021,-0.93018;
14:28:47.622,0.37061,0.21777,-0.92188;
14:28:47.642,0.36743,0.22485,-0.91895;
14:28:47.662,0.36621,0.23291,-0.92212;
14:28:47.682,0.36694,0.24341,-0.92407;
14:28:47.702,0.36938,0.24316,-0.92773;
14:28:47.722,0.36865,0.23413,-0.92822;
14:28:47.742,0.36621,0.22412,-0.92529;
14:28:47.762,0.36670,0.21851,-0.92480;
14:28:47.782,0.36792,0.22168,-0.92749;
14:28:47.802,0.36792,0.22412,-0.92627;
14:28:47.822,0.37036,0.22656,-0.92480;
14:28:47.842,0.37061,0.22852,-0.92529;
14:28:47.862,0.36841,0.22461,-0.92383;
14:28:47.882,0.36816,0.22437,-0.92358;
14:28:47.902,0.36768,0.22900,-0.92383;
14:28:47.922,0.36841,0.23560,-0.92358;
14:28:47.942,0.36841,0.23877,-0.92578;
14:28:47.962,0.36816,0.23682,-0.92676;
14:28:47.982,0.36719,0.22168,-0.92065;
14:28:48.002,0.36499,0.21533,-0.91895;
14:28:48.022,0.36548,0.22241,-0.92529;
14:28:48.042,0.36694,0.22998,-0.92969;
14:28:48.062,0.36865,0.22534,-0.92480;
14:28:48.082,0.36841,0.22217,-0.92163;
14:28:48.102,0.36719,0.22876,-0.92065;
14:28:48.122,0.36743,0.23633,-0.91675;
14:28:48.142,0.36743,0.23706,-0.91895;
14:28:48.162,0.36792,0.23682,-0.92212;
14:28:48.182,0.37061,0.23584,-0.92847;
14:28:48.202,0.37012,0.22949,-0.93188;
14:28:48.222,0.36694,0.22388,-0.92773;
14:28:48.242,0.36597,0.22144,-0.92383;
14:28:48.262,0.36597,0.22266,-0.92163;
14:28:48.282,0.36768,0.22852,-0.92285;
14:28:48.302,0.36792,0.23120,-0.92334;
14:28:48.322,0.36743,0.23438,-0.92676;
14:28:48.342,0.36694,0.23706,-0.92700;
14:28:48.362,0.36499,0.23535,-0.92749;
14:28:48.382,0.36475,0.23364,-0.92798;
14:28:48.402,0.36572,0.22827,-0.92627;
14:28:48.422,0.36523,0.22778,-0.92529;
14:28:48.442,0.36572,0.23486,-0.92383;
14:28:48.462,0.36450,0.23755,-0.92554;
14:28:48.482,0.36401,0.23462,-0.92822;
14:28:48.502,0.36523,0.23193,-0.92822;
14:28:48.522,0.36475,0.22656,-0.92871;
14:28:48.542,0.36499,0.22559,-0.92725;
14:28:48.562,0.36621,0.22681,-0.92456;
14:28:48.582,0.36401,0.22925,-0.92651;
14:28:48.602,0.36523,0.23193,-0.92554;
14:28:48.622,0.36572,0.23022,-0.92603;
14:28:48.642,0.36597,0.23193,-0.92505;
14:28:48.662,0.36597,0.23291,-0.92578;
14:28:48.682,0.36499,0.23315,-0.92578;
14:28:48.702,0.36328,0.23291,-0.92676;
14:28:48.722,0.36328,0.23120,-0.92896;
14:28:48.742,0.36499,0.23120,-0.92969;
14:28:48.762,0.36548,0.23340,-0.92725;
14:28:48.782,0.36597,0.23340,-0.92480;
14:28:48.802,0.36426,0.23071,-0.92676;
14:28:48.822,0.36450,0.23071,-0.92578;
14:28:48.842,0.36426,0.23218,-0.92651;
14:28:48.862,0.36353,0.23096,-0.92798;
14:28:48.882,0.36377,0.22852,-0.92700;
14:28:48.902,0.36450,0.23120,-0.92529;
14:28:48.922,0.36450,0.23145,-0.92627;
14:28:48.942,0.36377,0.23169,-0.93018;
14:28:48.962,0.36401,0.22974,-0.93188;
14:28:48.982,0.36377,0.22998,-0.93042;
14:28:49.002,0.36353,0.23071,-0.92847;
14:28:49.022,0.36328,0.22876,-0.92822;
14:28:49.042,0.36255,0.22998,-0.92871;
14:28:49.062,0.36157,0.23462,-0.92944;
14:28:49.082,0.36377,0.23755,-0.92822;
14:28:49.102,0.36401,0.23389,-0.92920;
14:28:49.122,0.36401,0.22681,-0.93164;
14:28:49.142,0.36499,0.22339,-0.93091;
14:28:49.162,0.36426,0.22729,-0.92676;
14:28:49.182,0.36499,0.23413,-0.92188;
14:28:49.202,0.36450,0.23755,-0.92310;
14:28:49.222,0.36279,0.23486,-0.92725;
14:28:49.242,0.36230,0.23608,-0.92871;
14:28:49.262,0.36353,0.23877,-0.92651;
14:28:49.282,0.36499,0.23633,-0.92480;
14:28:49.302,0.36597,0.23535,-0.92603;
14:28:49.322,0.36499,0.23267,-0.92798;
14:28:49.342,0.36670,0.23145,-0.92920;
14:28:49.362,0.36572,0.23022,-0.92749;
14:28:49.382,0.36450,0.22754,-0.92505;
14:28:49.402,0.36523,0.22925,-0.92578;
14:28:49.422,0.36499,0.23438,-0.92578;
14:28:49.442,0.36450,0.23584,-0.92798;
14:28:49.462,0.36548,0.23755,-0.92847;
14:28:49.482,0.36670,0.23853,-0.92603;
14:28:49.502,0.36572,0.23975,-0.92627;
14:28:49.522,0.36499,0.23901,-0.92725;
14:28:49.542,0.36450,0.23584,-0.92798;
14:28:49.562,0.36523,0.23584,-0.92578;
14:28:49.582,0.36646,0.24097,-0.92310;
14:28:49.602,0.36670,0.24365,-0.92065;
14:28:49.622,0.36646,0.24268,-0.92310;
14:28:49.642,0.36572,0.24146,-0.92310;
14:28:49.662,0.36548,0.23853,-0.92383;
14:28:49.682,0.36621,0.23608,-0.92627;
14:28:49.702,0.36646,0.23633,-0.92578;
14:28:49.722,0.36694,0.23389,-0.92139;
14:28:49.742,0.36792,0.23730,-0.91821;
14:28:49.762,0.36841,0.23877,-0.91919;
14:28:49.782,0.36816,0.24146,-0.92139;
14:28:49.802,0.36938,0.24536,-0.92236;
14:28:49.822,0.36841,0.24438,-0.92236;
14:28:49.842,0.36816,0.24414,-0.92212;
14:28:49.862,0.36841,0.24219,-0.91943;
14:28:49.882,0.36768,0.24243,-0.92407;
14:28:49.902,0.36865,0.24463,-0.92407;
14:28:49.922,0.36963,0.24731,-0.92310;
14:28:49.942,0.36987,0.24487,-0.92139;
14:28:49.962,0.36914,0.24365,-0.91919;
14:28:49.982,0.36963,0.24219,-0.91992;
14:28:50.002,0.37012,0.24292,-0.91895;
14:28:50.022,0.37036,0.24316,-0.91968;
14:28:50.042,0.37012,0.24023,-0.92041;
14:28:50.062,0.36987,0.23975,-0.91821;
14:28:50.082,0.37061,0.24219,-0.91895;
14:28:50.102,0.37109,0.24341,-0.91968;
14:28:50.122,0.37134,0.24072,-0.91870;
14:28:50.142,0.37134,0.23755,-0.91992;
14:28:50.162,0.37134,0.23730,-0.92188;
14:28:50.182,0.37207,0.24316,-0.91968;
14:28:50.202,0.37207,0.24707,-0.91870;
14:28:50.222,0.37231,0.24341,-0.91504;
14:28:50.242,0.37183,0.23926,-0.91748;
14:28:50.262,0.36914,0.23706,-0.91895;
14:28:50.282,0.37158,0.23779,-0.91577;
14:28:50.302,0.37231,0.24292,-0.91479;
14:28:50.322,0.37158,0.24194,-0.91650;
14:28:50.342,0.37085,0.24048,-0.92090;
14:28:50.362,0.36963,0.24463,-0.92310;
14:28:50.382,0.37012,0.24829,-0.91992;
14:28:50.402,0.37134,0.24487,-0.91699;
14:28:50.422,0.37207,0.23242,-0.92529;
14:28:50.442,0.36987,0.23340,-0.92041;
14:28:50.462,0.36938,0.23804,-0.92188;
14:28:50.482,0.36987,0.24121,-0.92114;
14:28:50.502,0.37109,0.24072,-0.92114;
14:28:50.522,0.37061,0.24268,-0.92065;
14:28:50.542,0.37085,0.24170,-0.92041;
14:28:50.562,0.36987,0.23901,-0.92383;
14:28:50.582,0.36816,0.23486,-0.92578;
14:28:50.602,0.36938,0.23828,-0.92041;
14:28:50.622,0.36963,0.24390,-0.91943;
14:28:50.642,0.36841,0.24268,-0.92041;
14:28:50.662,0.36768,0.23999,-0.92139;
14:28:50.682,0.36694,0.23486,-0.92529;
14:28:50.702,0.36816,0.23218,-0.92651;
14:28:50.722,0.36963,0.23145,-0.92407;
14:28:50.742,0.36963,0.22852,-0.91919;
14:28:50.762,0.37036,0.23022,-0.91943;
14:28:50.782,0.36963,0.23389,-0.92017;
14:28:50.802,0.36914,0.23804,-0.92432;
14:28:50.822,0.36841,0.24048,-0.92456;
14:28:50.842,0.36719,0.23779,-0.92358;
14:28:50.862,0.36597,0.23511,-0.92310;
14:28:50.882,0.36670,0.23511,-0.92432;
14:28:50.902,0.36792,0.23755,-0.92407;
14:28:50.922,0.36792,0.23804,-0.92480;
14:28:50.942,0.36792,0.23804,-0.92407;
14:28:50.962,0.36719,0.23706,-0.92310;
14:28:50.982,0.36597,0.23413,-0.92505;
14:28:51.002,0.36670,0.23413,-0.92505;
14:28:51.022,0.36597,0.23315,-0.92456;
14:28:51.042,0.36670,0.23438,-0.92383;
14:28:51.062,0.36743,0.23291,-0.92383;
14:28:51.082,0.36646,0.23218,-0.92480;
14:28:51.102,0.36792,0.23486,-0.92310;
14:28:51.122,0.36719,0.23438,-0.92358;
14:28:51.142,0.36646,0.23169,-0.92798;
14:28:51.162,0.36646,0.23291,-0.92871;
14:28:51.182,0.36621,0.23364,-0.92676;
14:28:51.202,0.36499,0.23389,-0.92603;
14:28:51.222,0.36523,0.23389,-0.92651;
14:28:51.242,0.36597,0.23413,-0.92822;
14:28:51.262,0.36499,0.23071,-0.92749;
14:28:51.282,0.36597,0.22925,-0.92407;
14:28:51.302,0.36548,0.23438,-0.92212;
14:28:51.322,0.36572,0.23096,-0.92261;
14:28:51.342,0.36719,0.23096,-0.92310;
14:28:51.362,0.36401,0.23145,-0.92358;
14:28:51.382,0.36279,0.23462,-0.92456;
14:28:51.402,0.36523,0.23730,-0.92114;
14:28:51.422,0.36450,0.23706,-0.92505;
14:28:51.442,0.36572,0.23193,-0.93066;
14:28:51.462,0.36670,0.23340,-0.93530;
14:28:51.482,0.36572,0.22778,-0.93018;
14:28:51.502,0.36279,0.22705,-0.92627;
14:28:51.522,0.36548,0.22803,-0.92480;
14:28:51.542,0.36548,0.22827,-0.92603;
14:28:51.562,0.36426,0.23315,-0.92529;
14:28:51.582,0.36523,0.22900,-0.92627;
14:28:51.602,0.36426,0.23145,-0.92822;
14:28:51.622,0.36401,0.23535,-0.92700;
14:28:51.642,0.36230,0.23389,-0.92896;
14:28:51.662,0.36206,0.23364,-0.92871;
14:28:51.682,0.36255,0.23071,-0.92920;
14:28:51.702,0.36377,0.23022,-0.92651;
14:28:51.722,0.36401,0.23291,-0.92676;
14:28:51.742,0.36279,0.23438,-0.92505;
14:28:51.762,0.36401,0.23486,-0.92407;
14:28:51.782,0.36304,0.23462,-0.92749;
14:28:51.802,0.36255,0.23267,-0.92969;
14:28:51.822,0.36353,0.22852,-0.92847;
14:28:51.842,0.36475,0.22632,-0.92749;
14:28:51.862,0.36328,0.23145,-0.92700;
14:28:51.882,0.36426,0.23608,-0.92505;
14:28:51.902,0.36450,0.23706,-0.92505;
14:28:51.922,0.36377,0.23584,-0.92676;
14:28:51.942,0.36377,0.23633,-0.92627;
14:28:51.962,0.36304,0.23315,-0.92822;
14:28:51.982,0.36401,0.23169,-0.92871;
14:28:52.002,0.36328,0.23267,-0.92773;
14:28:52.022,0.36328,0.23364,-0.92871;
14:28:52.042,0.36377,0.23438,-0.92847;
14:28:52.062,0.36475,0.23511,-0.92822;
14:28:52.082,0.36401,0.23364,-0.92896;
14:28:52.102,0.36230,0.23071,-0.92847;
14:28:52.122,0.36279,0.23218,-0.92798;
14:28:52.142,0.36353,0.23242,-0.92871;
14:28:52.162,0.36475,0.23071,-0.92529;
14:28:52.182,0.36499,0.23193,-0.92407;
14:28:52.202,0.36499,0.23413,-0.92627;
14:28:52.222,0.36426,0.23511,-0.92700;
14:28:52.242,0.36353,0.23584,-0.92798;
14:28:52.262,0.36426,0.23804,-0.92871;
14:28:52.282,0.36426,0.23682,-0.92627;
14:28:52.302,0.36377,0.23511,-0.92627;
14:28:52.322,0.36401,0.23584,-0.92261;
14:28:52.342,0.36548,0.24048,-0.92578;
14:28:52.362,0.36548,0.24048,-0.92578;
14:28:52.382,0.36523,0.23926,-0.92651;
14:28:52.402,0.36597,0.23535,-0.92358;
14:28:52.422,0.36523,0.23560,-0.92358;
14:28:52.442,0.36621,0.23682,-0.92163;
14:28:52.462,0.36768,0.24097,-0.91870;
14:28:52.482,0.36865,0.24341,-0.91699;
14:28:52.502,0.36719,0.24219,-0.92114;
14:28:52.522,0.36572,0.24512,-0.92578;
14:28:52.542,0.36499,0.24927,-0.92310;
14:28:52.562,0.36499,0.24561,-0.92554;
14:28:52.582,0.36670,0.23828,-0.92554;
14:28:52.602,0.36865,0.23608,-0.92603;
14:28:52.622,0.36768,0.23535,-0.92505;
14:28:52.642,0.36670,0.23608,-0.92456;
14:28:52.662,0.36768,0.23486,-0.92432;
14:28:52.682,0.36841,0.23779,-0.92090;
14:28:52.702,0.37012,0.24414,-0.92285;
14:28:52.722,0.37012,0.24048,-0.92383;
14:28:52.742,0.36865,0.24121,-0.92358;
14:28:52.762,0.36938,0.24683,-0.92554;
14:28:52.782,0.37012,0.24707,-0.92383;
14:28:52.802,0.36963,0.24365,-0.91919;
14:28:52.822,0.37207,0.24512,-0.91382;
14:28:52.842,0.37451,0.24951,-0.91089;
14:28:52.862,0.37500,0.24902,-0.91016;
14:28:52.882,0.37427,0.24683,-0.91138;
14:28:52.902,0.37451,0.24487,-0.91187;
14:28:52.922,0.37451,0.24194,-0.91016;
14:28:52.942,0.37427,0.23511,-0.90942;
14:28:52.962,0.37305,0.23462,-0.91016;
14:28:52.982,0.37402,0.23706,-0.91235;
14:28:53.002,0.37378,0.23804,-0.91577;
14:28:53.022,0.37280,0.24219,-0.91992;
14:28:53.042,0.37378,0.24634,-0.92334;
14:28:53.062,0.37329,0.24731,-0.92188;
14:28:53.082,0.37280,0.24316,-0.92310;
14:28:53.102,0.37183,0.23901,-0.92456;
14:28:53.122,0.37061,0.23828,-0.92358;
14:28:53.142,0.37158,0.24170,-0.92334;
14:28:53.162,0.37183,0.24512,-0.92334;
14:28:53.182,0.37207,0.24292,-0.92407;
14:28:53.202,0.37207,0.24023,-0.92285;
14:28:53.222,0.37183,0.24146,-0.91992;
14:28:53.242,0.37402,0.24268,-0.91650;
14:28:53.262,0.37256,0.23901,-0.91431;
14:28:53.282,0.37231,0.23950,-0.91479;
14:28:53.302,0.37305,0.23975,-0.92310;
14:28:53.322,0.37451,0.24219,-0.92163;
14:28:53.342,0.37402,0.24048,-0.92114;
14:28:53.362,0.37280,0.24170,-0.91992;
14:28:53.382,0.37134,0.24121,-0.92114;
14:28:53.402,0.37109,0.24072,-0.91968;
14:28:53.422,0.37183,0.24121,-0.92065;
14:28:53.442,0.37085,0.23950,-0.92212;
14:28:53.462,0.37134,0.24146,-0.92212;
14:28:53.482,0.37183,0.23657,-0.92529;
14:28:53.502,0.37256,0.23340,-0.92334;
14:28:53.522,0.37134,0.23340,-0.91943;
14:28:53.542,0.37354,0.23828,-0.91577;
14:28:53.562,0.37427,0.24414,-0.91528;
14:28:53.582,0.37207,0.23853,-0.91504;
14:28:53.602,0.37183,0.23853,-0.91748;
14:28:53.622,0.37012,0.24390,-0.92407;
14:28:53.642,0.37012,0.24927,-0.92432;
14:28:53.662,0.37085,0.24390,-0.92285;
14:28:53.682,0.37207,0.23438,-0.92627;
14:28:53.702,0.37329,0.23242,-0.92627;
14:28:53.722,0.37183,0.23291,-0.92285;
14:28:53.742,0.37061,0.22998,-0.92041;
14:28:53.762,0.36938,0.23389,-0.91943;
14:28:53.782,0.37134,0.23608,-0.92163;
14:28:53.802,0.37280,0.23438,-0.92236;
14:28:53.822,0.37134,0.23999,-0.92114;
14:28:53.842,0.37183,0.24243,-0.91919;
14:28:53.862,0.37109,0.24146,-0.92065;
14:28:53.882,0.37036,0.23950,-0.92285;
14:28:53.902,0.37012,0.23779,-0.92236;
14:28:53.922,0.36914,0.23364,-0.92505;
14:28:53.942,0.37036,0.23657,-0.92041;
14:28:53.962,0.37012,0.24341,-0.91797;
14:28:53.982,0.36987,0.24072,-0.91919;
14:28:54.002,0.37061,0.24048,-0.91968;
14:28:54.022,0.37012,0.23950,-0.92163;
14:28:54.042,0.36914,0.23413,-0.92017;
14:28:54.062,0.37134,0.22998,-0.91992;
14:28:54.082,0.37134,0.22803,-0.92700;
14:28:54.102,0.36890,0.23047,-0.92725;
14:28:54.122,0.37061,0.23315,-0.92041;
14:28:54.142,0.37109,0.24194,-0.91968;
14:28:54.162,0.37256,0.24561,-0.91919;
14:28:54.182,0.37109,0.24268,-0.92090;
14:28:54.202,0.36890,0.23853,-0.92065;
14:28:54.222,0.36816,0.23389,-0.92358;
14:28:54.242,0.36792,0.23169,-0.92651;
14:28:54.262,0.36865,0.23242,-0.92383;
14:28:54.282,0.36938,0.23755,-0.92334;
14:28:54.302,0.36963,0.24023,-0.92163;
14:28:54.322,0.36890,0.23999,-0.92188;
14:28:54.342,0.36865,0.23682,-0.92358;
14:28:54.362,0.36792,0.23486,-0.92407;
14:28:54.382,0.36743,0.23364,-0.92139;
14:28:54.402,0.36890,0.23315,-0.92017;
14:28:54.422,0.36938,0.23389,-0.92432;
14:28:54.442,0.36841,0.23511,-0.92456;
14:28:54.462,0.36841,0.23779,-0.92285;
14:28:54.482,0.37036,0.23755,-0.92236;
14:28:54.502,0.36938,0.23486,-0.92407;
14:28:54.522,0.36890,0.23438,-0.92456;
14:28:54.542,0.36914,0.23486,-0.92334;
14:28:54.562,0.36816,0.23486,-0.92285;
14:28:54.582,0.36816,0.23560,-0.92261;
14:28:54.602,0.36841,0.23877,-0.92749;
14:28:54.622,0.36646,0.24072,-0.93115;
14:28:54.642,0.36719,0.23438,-0.93311;
14:28:54.662,0.36938,0.23242,-0.93628;
14:28:54.682,0.37012,0.23828,-0.93896;
14:28:54.702,0.37012,0.23633,-0.93359;
14:28:54.722,0.36841,0.23267,-0.92041;
14:28:54.742,0.36816,0.22974,-0.90796;
14:28:54.762,0.36743,0.23193,-0.90649;
14:28:54.782,0.36646,0.23608,-0.90771;
14:28:54.802,0.36792,0.24072,-0.91235;
14:28:54.822,0.36670,0.21411,-0.91626;
14:28:54.842,0.36719,0.21680,-0.91406;
14:28:54.862,0.36890,0.22900,-0.92017;
14:28:54.882,0.36890,0.23413,-0.92432;
14:28:54.902,0.36890,0.23315,-0.92969;
14:28:54.922,0.36914,0.22998,-0.92969;
14:28:54.942,0.36914,0.22705,-0.92847;
14:28:54.962,0.36694,0.22485,-0.92847;
14:28:54.982,0.36572,0.22534,-0.92749;
14:28:55.002,0.36572,0.22681,-0.92529;
14:28:55.022,0.36792,0.22437,-0.92480;
14:28:55.042,0.37061,0.22949,-0.92554;
14:28:55.062,0.36963,0.23730,-0.92725;
14:28:55.082,0.36987,0.23584,-0.92651;
14:28:55.102,0.36963,0.23511,-0.92432;
14:28:55.122,0.36987,0.23193,-0.92554;
14:28:55.142,0.36816,0.22705,-0.92480;
14:28:55.162,0.36646,0.22363,-0.92358;
14:28:55.182,0.36694,0.22070,-0.92456;
14:28:55.202,0.36743,0.22412,-0.92114;
14:28:55.222,0.36914,0.22754,-0.91846;
14:28:55.242,0.37061,0.23071,-0.92407;
14:28:55.262,0.36963,0.23730,-0.92554;
14:28:55.282,0.36963,0.22388,-0.92383;
14:28:55.302,0.36890,0.22266,-0.92310;
14:28:55.322,0.36768,0.21875,-0.92554;
14:28:55.342,0.36572,0.22144,-0.92871;
14:28:55.362,0.36670,0.23145,-0.93164;
14:28:55.382,0.36597,0.23535,-0.92969;
14:28:55.402,0.36548,0.23169,-0.92603;
14:28:55.422,0.36719,0.22729,-0.92432;
14:28:55.442,0.36792,0.22632,-0.92432;
14:28:55.462,0.36572,0.22388,-0.92334;
14:28:55.482,0.36523,0.22339,-0.92188;
14:28:55.502,0.36597,0.22021,-0.91919;
14:28:55.522,0.37012,0.21973,-0.91968;
14:28:55.542,0.37061,0.22852,-0.92578;
14:28:55.562,0.36768,0.23413,-0.92310;
14:28:55.582,0.36572,0.23560,-0.92041;
14:28:55.602,0.36572,0.22754,-0.92163;
14:28:55.622,0.36597,0.22729,-0.92236;
14:28:55.642,0.36523,0.23096,-0.92920;
14:28:55.662,0.36450,0.22339,-0.92920;
14:28:55.682,0.36572,0.22607,-0.93066;
14:28:55.702,0.36621,0.23218,-0.93237;
14:28:55.722,0.36450,0.23364,-0.93188;
14:28:55.742,0.36401,0.23364,-0.93335;
14:28:55.762,0.36304,0.22876,-0.93701;
14:28:55.782,0.36572,0.22998,-0.92773;
14:28:55.802,0.36426,0.23340,-0.92651;
14:28:55.822,0.36182,0.23560,-0.92773;
14:28:55.842,0.36255,0.23486,-0.92969;
14:28:55.862,0.36353,0.23608,-0.92261;
14:28:55.882,0.36548,0.23438,-0.91870;
14:28:55.902,0.36597,0.23608,-0.91943;
14:28:55.922,0.36719,0.24243,-0.92383;
14:28:55.942,0.36646,0.24170,-0.92847;
14:28:55.962,0.36353,0.23315,-0.93042;
14:28:55.982,0.36328,0.22729,-0.93164;
14:28:56.002,0.36206,0.22656,-0.92944;
14:28:56.022,0.36523,0.22607,-0.92773;
14:28:56.042,0.36450,0.22729,-0.92920;
14:28:56.062,0.36304,0.23291,-0.92725;
14:28:56.082,0.36475,0.23950,-0.92358;
14:28:56.102,0.36523,0.24585,-0.92139;
14:28:56.122,0.36621,0.24365,-0.92334;
14:28:56.142,0.36548,0.23877,-0.92480;
14:28:56.162,0.36597,0.23730,-0.92578;
14:28:56.182,0.36719,0.23291,-0.92480;
14:28:56.202,0.36865,0.23828,-0.92163;
14:28:56.222,0.36938,0.24341,-0.92334;
14:28:56.242,0.36597,0.24487,-0.92578;
14:28:56.262,0.36548,0.24609,-0.92627;
14:28:56.282,0.36548,0.24585,-0.92261;
14:28:56.302,0.36743,0.24146,-0.92285;
14:28:56.322,0.36670,0.23853,-0.92236;
14:28:56.342,0.36670,0.23853,-0.92310;
14:28:56.362,0.36646,0.23999,-0.92139;
14:28:56.382,0.36768,0.24414,-0.91919;
14:28:56.402,0.36963,0.24512,-0.91870;
14:28:56.422,0.36890,0.24390,-0.91870;
14:28:56.442,0.36865,0.24341,-0.92090;
14:28:56.462,0.36963,0.24487,-0.91992;
14:28:56.482,0.36816,0.24829,-0.91870;
14:28:56.502,0.36890,0.24878,-0.91699;
14:28:56.522,0.36963,0.24756,-0.91602;
14:28:56.542,0.36963,0.24878,-0.91626;
14:28:56.562,0.37036,0.24683,-0.91455;
14:28:56.582,0.36987,0.24561,-0.91406;
14:28:56.602,0.37012,0.24438,-0.91553;
14:28:56.622,0.37109,0.24414,-0.91846;
14:28:56.642,0.37085,0.24536,-0.91699;
14:28:56.662,0.37109,0.24341,-0.91821;
14:28:56.682,0.37061,0.24463,-0.91895;
14:28:56.702,0.37061,0.24683,-0.91846;
14:28:56.722,0.37085,0.24463,-0.91895;
14:28:56.742,0.37207,0.24561,-0.92188;
14:28:56.762,0.37134,0.24609,-0.92163;
14:28:56.782,0.37280,0.25000,-0.91797;
14:28:56.802,0.37109,0.24805,-0.91284;
14:28:56.822,0.37256,0.24292,-0.91333;
14:28:56.842,0.37402,0.23926,-0.91553;
14:28:56.862,0.37305,0.23779,-0.91431;
14:28:56.882,0.37402,0.24390,-0.91284;
14:28:56.902,0.37305,0.24609,-0.91162;
14:28:56.922,0.37158,0.24536,-0.91602;
14:28:56.942,0.36841,0.24780,-0.92114;
14:28:56.962,0.36816,0.25317,-0.92041;
14:28:56.982,0.37036,0.25244,-0.91772;
14:28:57.002,0.37183,0.24438,-0.91724;
14:28:57.022,0.37329,0.23999,-0.92065;
14:28:57.042,0.37280,0.23486,-0.92017;
14:28:57.062,0.37134,0.23511,-0.91772;
14:28:57.082,0.37085,0.24121,-0.91772;
14:28:57.102,0.37134,0.24194,-0.91553;
14:28:57.122,0.37183,0.24194,-0.91260;
14:28:57.142,0.37207,0.24072,-0.91406;
14:28:57.162,0.37256,0.23730,-0.91577;
14:28:57.182,0.37207,0.24414,-0.92041;
14:28:57.202,0.36890,0.24780,-0.92334;
14:28:57.222,0.36768,0.24683,-0.92310;
14:28:57.242,0.36890,0.24561,-0.93262;
14:28:57.262,0.36963,0.24390,-0.93091;
14:28:57.282,0.36938,0.24292,-0.92578;
14:28:57.302,0.36963,0.23730,-0.92334;
14:28:57.322,0.36963,0.23511,-0.92261;
14:28:57.342,0.37012,0.23633,-0.92383;
14:28:57.362,0.37036,0.23975,-0.92505;
14:28:57.382,0.37109,0.23853,-0.92603;
14:28:57.402,0.37061,0.23218,-0.92407;
14:28:57.422,0.37134,0.23291,-0.91821;
14:28:57.442,0.37061,0.24268,-0.91528;
14:28:57.462,0.37036,0.24756,-0.91699;
14:28:57.482,0.36938,0.25146,-0.92188;
14:28:57.502,0.36963,0.24854,-0.92285;
14:28:57.522,0.36938,0.24707,-0.91943;
14:28:57.542,0.36670,0.24731,-0.91577;
14:28:57.562,0.36694,0.24780,-0.91284;
14:28:57.582,0.36670,0.24463,-0.91772;
14:28:57.602,0.36890,0.24243,-0.92480;
14:28:57.622,0.37012,0.23706,-0.92871;
14:28:57.642,0.37036,0.23706,-0.92700;
14:28:57.662,0.37036,0.24316,-0.91846;
14:28:57.682,0.37012,0.24487,-0.91162;
14:28:57.702,0.36938,0.24634,-0.91821;
14:28:57.722,0.36963,0.24780,-0.92261;
14:28:57.742,0.37061,0.23315,-0.91528;
14:28:57.762,0.36987,0.23364,-0.91479;
14:28:57.782,0.36816,0.24170,-0.92065;
14:28:57.802,0.36743,0.24683,-0.92920;
14:28:57.822,0.36938,0.24268,-0.93018;
14:28:57.842,0.37085,0.24146,-0.93286;
14:28:57.862,0.36914,0.24365,-0.92822;
14:28:57.882,0.36719,0.24121,-0.91724;
14:28:57.902,0.36694,0.23608,-0.91431;
14:28:57.922,0.36914,0.24414,-0.91333;
14:28:57.942,0.36963,0.24976,-0.91895;
14:28:57.962,0.36792,0.24023,-0.92236;
14:28:57.982,0.36816,0.23682,-0.92041;
14:28:58.002,0.36938,0.24268,-0.91504;
14:28:58.022,0.36914,0.24561,-0.91089;
14:28:58.042,0.36719,0.24268,-0.91919;
14:28:58.062,0.36841,0.24146,-0.92700;
14:28:58.082,0.36987,0.23584,-0.93433;
14:28:58.102,0.36987,0.23291,-0.92725;
14:28:58.122,0.36914,0.23145,-0.91650;
14:28:58.142,0.36792,0.23682,-0.91382;
14:28:58.162,0.36768,0.23999,-0.91064;
14:28:58.182,0.36792,0.23999,-0.91553;
14:28:58.202,0.36841,0.24146,-0.92432;
14:28:58.222,0.36694,0.23730,-0.92773;
14:28:58.242,0.36743,0.23779,-0.92310;
14:28:58.262,0.36743,0.23584,-0.92041;
14:28:58.282,0.36719,0.23560,-0.91577;
14:28:58.302,0.36768,0.24121,-0.91821;
14:28:58.322,0.36694,0.24316,-0.92163;
14:28:58.342,0.36792,0.23999,-0.92529;
14:28:58.362,0.36694,0.23975,-0.92627;
14:28:58.382,0.36572,0.23804,-0.92773;
14:28:58.402,0.36499,0.23193,-0.92676;
14:28:58.422,0.36475,0.22803,-0.92603;
14:28:58.442,0.36548,0.22900,-0.92554;
14:28:58.462,0.36719,0.23218,-0.92554;
14:28:58.482,0.36816,0.23486,-0.92261;
14:28:58.502,0.36670,0.24121,-0.91968;
14:28:58.522,0.36621,0.24292,-0.92163;
14:28:58.542,0.36523,0.23779,-0.92212;
14:28:58.562,0.36499,0.23730,-0.92529;
14:28:58.582,0.36450,0.23145,-0.92969;
14:28:58.602,0.36377,0.23193,-0.93018;
14:28:58.622,0.36353,0.23389,-0.92920;
14:28:58.642,0.36377,0.23486,-0.92749;
14:28:58.662,0.36475,0.23950,-0.92310;
14:28:58.682,0.36426,0.23877,-0.92627;
14:28:58.702,0.36426,0.23193,-0.92920;
14:28:58.722,0.36450,0.22998,-0.92651;
14:28:58.742,0.36328,0.23218,-0.92700;
14:28:58.762,0.36401,0.23242,-0.92554;
14:28:58.782,0.36377,0.23706,-0.92480;
14:28:58.802,0.36450,0.23706,-0.92700;
14:28:58.822,0.36548,0.23315,-0.92505;
14:28:58.842,0.36523,0.23096,-0.92554;
14:28:58.862,0.36328,0.23242,-0.92749;
14:28:58.882,0.36304,0.23511,-0.92725;
14:28:58.902,0.36304,0.23999,-0.92969;
14:28:58.922,0.36255,0.23779,-0.93213;
14:28:58.942,0.36328,0.23096,-0.92896;
14:28:58.962,0.36328,0.22705,-0.93042;
14:28:58.982,0.36353,0.22559,-0.92896;
14:28:59.002,0.36597,0.23364,-0.92749;
14:28:59.022,0.36450,0.23584,-0.92554;
14:28:59.042,0.36108,0.23608,-0.91895;
14:28:59.062,0.36108,0.23975,-0.92163;
14:28:59.082,0.36353,0.24268,-0.92358;
14:28:59.102,0.36499,0.23657,-0.92529;
14:28:59.122,0.36475,0.22827,-0.93091;
14:28:59.142,0.36499,0.22705,-0.93286;
14:28:59.162,0.36450,0.23047,-0.92114;
14:28:59.182,0.36353,0.23267,-0.92773;
14:28:59.202,0.36328,0.22925,-0.92505;
14:28:59.222,0.36230,0.23242,-0.92529;
14:28:59.242,0.36108,0.23560,-0.92529;
14:28:59.262,0.36182,0.23462,-0.92651;
14:28:59.282,0.36304,0.23462,-0.92749;
14:28:59.302,0.36377,0.23389,-0.92725;
14:28:59.322,0.36646,0.23828,-0.92529;
14:28:59.342,0.36548,0.24438,-0.92188;
14:28:59.362,0.36108,0.24487,-0.92407;
14:28:59.382,0.35962,0.23633,-0.92651;
14:28:59.402,0.36060,0.22925,-0.92871;
14:28:59.422,0.36353,0.22217,-0.92773;
14:28:59.442,0.36694,0.21948,-0.92480;
14:28:59.462,0.36572,0.23071,-0.92529;
14:28:59.482,0.36426,0.24023,-0.92358;
14:28:59.502,0.36230,0.24780,-0.92383;
14:28:59.522,0.36084,0.24780,-0.92236;
14:28:59.542,0.36182,0.23853,-0.92261;
14:28:59.562,0.36255,0.23169,-0.92480;
14:28:59.582,0.36230,0.22949,-0.92603;
14:28:59.602,0.36230,0.22803,-0.92773;
14:28:59.622,0.36279,0.23926,-0.92749;
14:28:59.642,0.36426,0.24023,-0.92480;
14:28:59.662,0.36450,0.23999,-0.92334;
14:28:59.682,0.36304,0.23779,-0.92261;
14:28:59.702,0.36255,0.23706,-0.92090;
14:28:59.722,0.36304,0.23633,-0.92188;
14:28:59.742,0.36353,0.23340,-0.92334;
14:28:59.762,0.36279,0.23755,-0.92456;
14:28:59.782,0.36548,0.23633,-0.92773;
14:28:59.802,0.36646,0.22974,-0.92847;
14:28:59.822,0.36450,0.22583,-0.92798;
14:28:59.842,0.36377,0.22827,-0.92627;
14:28:59.862,0.36230,0.23560,-0.92456;
14:28:59.882,0.36279,0.23828,-0.92480;
14:28:59.902,0.36157,0.23682,-0.92578;
14:28:59.922,0.36206,0.23267,-0.92578;
