time,acc_x,acc_y,acc_z
01:42:00.018,0.66870,-0.00879,-0.76587;
01:42:00.038,0.67456,-0.00122,-0.76538;
01:42:00.058,0.67261,0.00269,-0.76709;
01:42:00.078,0.67334,0.00220,-0.77051;
01:42:00.098,0.67578,0.00000,-0.77222;
01:42:00.118,0.66870,-0.00171,-0.77222;
01:42:00.138,0.66284,-0.00513,-0.77661;
01:42:00.158,0.66626,-0.01025,-0.77466;
01:42:00.178,0.66968,-0.00977,-0.76831;
01:42:00.198,0.67163,-0.00342,-0.76855;
01:42:00.218,0.67334,0.00073,-0.76953;
01:42:00.238,0.67212,0.00024,-0.76953;
01:42:00.258,0.66943,-0.00293,-0.76880;
01:42:00.278,0.66992,-0.00415,-0.76978;
01:42:00.298,0.66821,-0.00488,-0.76929;
01:42:00.318,0.66821,-0.00513,-0.76782;
01:42:00.338,0.67163,-0.00439,-0.77148;
01:42:00.358,0.67163,-0.00269,-0.77295;
01:42:00.378,0.67090,-0.00146,-0.77246;
01:42:00.398,0.66870,-0.00244,-0.77319;
01:42:00.418,0.66748,-0.00269,-0.77173;
01:42:00.438,0.66797,-0.00391,-0.77100;
01:42:00.458,0.67139,-0.00366,-0.77466;
01:42:00.478,0.67017,-0.00317,-0.77417;
01:42:00.498,0.66895,0.00000,-0.77295;
01:42:00.518,0.66553,0.00244,-0.76807;
01:42:00.538,0.66626,0.00000,-0.77441;
01:42:00.558,0.66895,-0.00562,-0.77515;
01:42:00.578,0.66650,-0.00659,-0.76392;
01:42:00.598,0.66504,-0.00220,-0.77393;
01:42:00.618,0.66406,-0.00513,-0.77686;
01:42:00.638,0.66821,-0.00806,-0.77734;
01:42:00.658,0.67065,-0.00220,-0.77856;
01:42:00.678,0.67114,0.00830,-0.77026;
01:42:00.698,0.67065,0.01294,-0.76929;
01:42:00.718,0.66577,-0.00049,-0.77441;
01:42:00.738,0.66211,-0.01367,-0.77295;
01:42:00.758,0.66113,-0.01221,-0.76880;
01:42:00.778,0.66504,-0.00391,-0.77075;
01:42:00.798,0.66797,0.00171,-0.77148;
01:42:00.818,0.66772,0.00488,-0.77148;
01:42:00.838,0.66724,0.00415,-0.77539;
01:42:00.858,0.66504,0.00220,-0.77515;
01:42:00.878,0.66333,0.00073,-0.77930;
01:42:00.898,0.66455,-0.00464,-0.78003;
01:42:00.918,0.66333,-0.00610,-0.77344;
01:42:00.938,0.66626,0.00366,-0.77563;
01:42:00.958,0.66650,0.00000,-0.77295;
01:42:00.978,0.66455,-0.00293,-0.77344;
01:42:00.998,0.66382,-0.00293,-0.77295;
01:42:01.018,0.66113,-0.00073,-0.77124;
01:42:01.038,0.66382,0.00098,-0.77393;
01:42:01.058,0.66821,0.00000,-0.77393;
01:42:01.078,0.66699,0.00024,-0.77734;
01:42:01.098,0.66528,0.00122,-0.77588;
01:42:01.118,0.66284,0.00049,-0.77417;
01:42:01.138,0.66309,-0.00024,-0.77539;
01:42:01.158,0.66309,-0.00122,-0.77588;
01:42:01.178,0.66382,-0.00049,-0.77539;
01:42:01.198,0.66528,0.00000,-0.77563;
01:42:01.218,0.66382,0.00146,-0.77466;
01:42:01.238,0.66089,0.00317,-0.77344;
01:42:01.258,0.66357,0.00146,-0.77539;
01:42:01.278,0.66455,-0.00049,-0.77661;
01:42:01.298,0.66455,-0.00171,-0.77783;
01:42:01.318,0.66455,-0.00098,-0.78003;
01:42:01.338,0.66064,0.00415,-0.77563;
01:42:01.358,0.66431,0.00415,-0.78101;
01:42:01.378,0.66577,0.00049,-0.77563;
01:42:01.398,0.66357,0.00098,-0.78052;
01:42:01.418,0.65894,0.00049,-0.76563;
01:42:01.438,0.65845,0.00146,-0.77832;
01:42:01.458,0.66260,-0.00659,-0.78418;
01:42:01.478,0.66602,-0.00635,-0.78296;
01:42:01.498,0.66772,0.00610,-0.77441;
01:42:01.518,0.66821,0.01685,-0.76465;
01:42:01.538,0.66772,0.01196,-0.76831;
01:42:01.558,0.66040,-0.00049,-0.77734;
01:42:01.578,0.65771,-0.01196,-0.77734;
01:42:01.598,0.66064,-0.01563,-0.76733;
01:42:01.618,0.66284,-0.00391,-0.77124;
01:42:01.638,0.66211,0.00537,-0.77197;
01:42:01.658,0.66772,0.00952,-0.77393;
01:42:01.678,0.66772,0.00830,-0.77539;
01:42:01.698,0.66406,0.00488,-0.77466;
01:42:01.718,0.66284,0.00293,-0.78003;
01:42:01.738,0.66162,-0.00464,-0.77808;
01:42:01.758,0.66089,-0.00732,-0.77637;
01:42:01.778,0.66113,-0.00098,-0.77515;
01:42:01.798,0.66479,0.00513,-0.77124;
01:42:01.818,0.66992,0.00488,-0.77515;
01:42:01.838,0.66919,-0.00049,-0.77759;
01:42:01.858,0.66577,-0.00317,-0.77417;
01:42:01.878,0.66357,-0.00366,-0.77173;
01:42:01.898,0.66699,0.00024,-0.77344;
01:42:01.918,0.66919,0.00366,-0.77246;
01:42:01.938,0.66870,0.00244,-0.77393;
01:42:01.958,0.66626,0.00220,-0.77539;
01:42:01.978,0.66577,0.00024,-0.77295;
01:42:01.998,0.66382,-0.00269,-0.77490;
01:42:02.018,0.66553,-0.00146,-0.77319;
01:42:02.038,0.66943,-0.00220,-0.77173;
01:42:02.058,0.66846,-0.00146,-0.77124;
01:42:02.078,0.66821,-0.00024,-0.76953;
01:42:02.098,0.66724,-0.00098,-0.77246;
01:42:02.118,0.66895,-0.00049,-0.77417;
01:42:02.138,0.66919,-0.00122,-0.77295;
01:42:02.158,0.67017,-0.00220,-0.77441;
01:42:02.178,0.67041,-0.00073,-0.77124;
01:42:02.198,0.67090,-0.00073,-0.77368;
01:42:02.218,0.66846,-0.00073,-0.77075;
01:42:02.238,0.66626,-0.00073,-0.76880;
01:42:02.258,0.67139,-0.00171,-0.77539;
01:42:02.278,0.66919,-0.00415,-0.76440;
01:42:02.298,0.66675,-0.00586,-0.77563;
01:42:02.318,0.66895,-0.00488,-0.78442;
01:42:02.338,0.67041,-0.00171,-0.77637;
01:42:02.358,0.67285,0.00562,-0.76587;
01:42:02.378,0.67944,0.00610,-0.75854;
01:42:02.398,0.66187,-0.01929,-0.76880;
01:42:02.418,0.66479,-0.01392,-0.76440;
01:42:02.438,0.67139,-0.00342,-0.76440;
01:42:02.458,0.67480,0.00317,-0.76489;
01:42:02.478,0.67554,0.00366,-0.76807;
01:42:02.498,0.67505,0.00195,-0.76636;
01:42:02.518,0.67212,0.00049,-0.76782;
01:42:02.538,0.67041,-0.00439,-0.77563;
01:42:02.558,0.66968,-0.01221,-0.77246;
01:42:02.578,0.66992,-0.01245,-0.76660;
01:42:02.598,0.67334,-0.00464,-0.76660;
01:42:02.618,0.67334,0.00024,-0.76880;
01:42:02.638,0.67407,-0.00171,-0.76904;
01:42:02.658,0.67505,-0.00391,-0.76343;
01:42:02.678,0.67456,-0.00781,-0.76245;
01:42:02.698,0.67139,-0.00879,-0.76392;
01:42:02.718,0.66992,-0.00586,-0.76611;
01:42:02.738,0.67261,-0.00244,-0.76758;
01:42:02.758,0.67456,-0.00073,-0.76855;
01:42:02.778,0.67261,-0.00366,-0.77051;
01:42:02.798,0.67236,-0.00464,-0.76953;
01:42:02.818,0.67285,-0.00366,-0.76855;
01:42:02.838,0.67236,-0.00488,-0.76733;
01:42:02.858,0.67188,-0.00708,-0.76855;
01:42:02.878,0.66992,-0.00537,-0.76489;
01:42:02.898,0.67334,-0.00391,-0.76953;
01:42:02.918,0.67358,-0.00513,-0.76978;
01:42:02.938,0.67114,-0.00342,-0.76831;
01:42:02.958,0.67188,-0.00024,-0.76611;
01:42:02.978,0.66968,0.00098,-0.76855;
01:42:02.998,0.67334,-0.00391,-0.77246;
01:42:03.018,0.67358,-0.00903,-0.76245;
01:42:03.038,0.66968,-0.00806,-0.76953;
01:42:03.058,0.66675,-0.00415,-0.77954;
01:42:03.078,0.66919,-0.00317,-0.77637;
01:42:03.098,0.67407,0.00073,-0.77148;
01:42:03.118,0.67847,0.00439,-0.76563;
01:42:03.138,0.67700,0.00317,-0.76611;
01:42:03.158,0.66895,-0.00635,-0.76782;
01:42:03.178,0.66235,-0.01611,-0.76807;
01:42:03.198,0.66309,-0.01318,-0.76685;
01:42:03.218,0.66943,-0.00488,-0.76782;
01:42:03.238,0.66943,0.00122,-0.76880;
01:42:03.258,0.67041,0.00391,-0.77295;
01:42:03.278,0.67310,0.00342,-0.77222;
01:42:03.298,0.67114,0.00171,-0.77100;
01:42:03.318,0.66455,-0.00049,-0.77954;
01:42:03.338,0.66357,-0.00879,-0.77075;
01:42:03.358,0.67017,0.00000,-0.77173;
01:42:03.378,0.67139,0.00098,-0.77075;
01:42:03.398,0.67114,-0.00171,-0.77075;
01:42:03.418,0.67090,-0.00220,-0.77002;
01:42:03.438,0.66846,-0.00269,-0.76929;
01:42:03.458,0.66553,-0.00244,-0.77148;
01:42:03.478,0.66870,-0.00269,-0.77148;
01:42:03.498,0.67090,-0.00195,-0.77295;
01:42:03.518,0.66626,-0.00024,-0.77612;
01:42:03.538,0.66479,-0.00098,-0.77710;
01:42:03.558,0.66626,-0.00146,-0.77319;
01:42:03.578,0.66626,-0.00244,-0.77490;
01:42:03.598,0.66626,-0.00244,-0.77490;
01:42:03.618,0.66602,-0.00049,-0.77222;
01:42:03.638,0.66821,0.00024,-0.77393;
01:42:03.658,0.66675,0.00024,-0.77295;
01:42:03.678,0.66650,-0.00024,-0.77124;
01:42:03.698,0.66479,-0.00146,-0.77051;
01:42:03.718,0.66431,-0.00195,-0.77441;
01:42:03.738,0.66724,-0.00220,-0.77759;
01:42:03.758,0.66797,-0.00244,-0.77539;
01:42:03.778,0.66650,-0.00073,-0.77344;
01:42:03.798,0.66382,0.00366,-0.77612;
01:42:03.818,0.66504,0.00098,-0.77197;
01:42:03.838,0.66406,0.00073,-0.77881;
01:42:03.858,0.66553,-0.00146,-0.77246;
01:42:03.878,0.65869,-0.00049,-0.76685;
01:42:03.898,0.66162,-0.00244,-0.78003;
01:42:03.918,0.66602,-0.00879,-0.77808;
01:42:03.938,0.66626,-0.00806,-0.77710;
01:42:03.958,0.66772,0.00195,-0.77515;
01:42:03.978,0.66846,0.01660,-0.76880;
01:42:03.998,0.66602,0.01563,-0.76855;
01:42:04.018,0.66187,-0.00391,-0.77856;
01:42:04.038,0.65869,-0.01514,-0.77710;
01:42:04.058,0.65918,-0.01099,-0.77124;
01:42:04.078,0.66333,-0.00049,-0.77295;
01:42:04.098,0.66431,0.00513,-0.77173;
01:42:04.118,0.66479,0.00684,-0.77466;
01:42:04.138,0.66479,0.00488,-0.77686;
01:42:04.158,0.66333,0.00220,-0.77759;
01:42:04.178,0.66333,-0.00024,-0.78076;
01:42:04.198,0.66162,-0.00439,-0.78174;
01:42:04.218,0.66138,-0.00439,-0.77710;
01:42:04.238,0.66260,0.00195,-0.77393;
01:42:04.258,0.66553,-0.00073,-0.77563;
01:42:04.278,0.66040,0.00024,-0.77588;
01:42:04.298,0.66357,0.00220,-0.77417;
01:42:04.318,0.66699,0.00317,-0.77539;
01:42:04.338,0.66626,0.00269,-0.77686;
01:42:04.358,0.66284,0.00098,-0.77441;
01:42:04.378,0.66113,0.00122,-0.77637;
01:42:04.398,0.66162,0.00049,-0.77393;
01:42:04.418,0.66260,0.00024,-0.77637;
01:42:04.438,0.66479,0.00146,-0.77563;
01:42:04.458,0.66479,0.00244,-0.77417;
01:42:04.478,0.66235,0.00220,-0.77661;
01:42:04.498,0.66064,0.00195,-0.77466;
01:42:04.518,0.66187,0.00098,-0.77563;
01:42:04.538,0.66431,-0.00195,-0.77905;
01:42:04.558,0.66504,-0.00220,-0.77856;
01:42:04.578,0.66382,0.00293,-0.77856;
01:42:04.598,0.66211,0.00732,-0.77515;
01:42:04.618,0.66455,0.00342,-0.77710;
01:42:04.638,0.66016,0.00024,-0.77515;
01:42:04.658,0.66138,0.00024,-0.78223;
01:42:04.678,0.66260,0.00024,-0.77344;
01:42:04.698,0.65527,0.00342,-0.77051;
01:42:04.718,0.66016,0.00098,-0.78418;
01:42:04.738,0.66821,0.01563,-0.76904;
01:42:04.758,0.67041,0.01465,-0.76440;
01:42:04.778,0.66455,0.00488,-0.76978;
01:42:04.798,0.65674,-0.00732,-0.77710;
01:42:04.818,0.65674,-0.01587,-0.77490;
01:42:04.838,0.65967,-0.00757,-0.77100;
01:42:04.858,0.66235,0.00635,-0.77002;
01:42:04.878,0.66626,0.01245,-0.77148;
01:42:04.898,0.66943,0.01001,-0.77539;
01:42:04.918,0.66675,0.00415,-0.77539;
01:42:04.938,0.65991,0.00293,-0.77686;
01:42:04.958,0.66113,-0.00024,-0.78223;
01:42:04.978,0.66211,-0.00659,-0.77930;
01:42:04.998,0.66260,-0.00391,-0.77661;
01:42:05.018,0.66284,0.00635,-0.77344;
01:42:05.038,0.66406,0.00903,-0.77002;
01:42:05.058,0.67065,0.00415,-0.77393;
01:42:05.078,0.66724,-0.00220,-0.77612;
01:42:05.098,0.66138,-0.00562,-0.77368;
01:42:05.118,0.66089,-0.00293,-0.77124;
01:42:05.138,0.66211,0.00049,-0.77075;
01:42:05.158,0.66479,0.00391,-0.77417;
01:42:05.178,0.66919,0.00464,-0.77612;
01:42:05.198,0.66699,0.00171,-0.77466;
01:42:05.218,0.66455,0.00220,-0.77539;
01:42:05.238,0.66309,0.00171,-0.77661;
01:42:05.258,0.66602,-0.00049,-0.77417;
01:42:05.278,0.66724,-0.00220,-0.77344;
01:42:05.298,0.66821,-0.00171,-0.77197;
01:42:05.318,0.66699,0.00073,-0.77026;
01:42:05.338,0.66748,0.00122,-0.77344;
01:42:05.358,0.66870,0.00073,-0.77661;
01:42:05.378,0.66968,0.00073,-0.77588;
01:42:05.398,0.67139,0.00122,-0.77344;
01:42:05.418,0.66846,0.00220,-0.77197;
01:42:05.438,0.66748,0.00146,-0.77295;
01:42:05.458,0.66699,-0.00049,-0.76611;
01:42:05.478,0.66895,-0.00146,-0.77246;
01:42:05.498,0.67114,-0.00342,-0.76782;
01:42:05.518,0.66553,-0.00439,-0.76807;
01:42:05.538,0.66699,-0.00391,-0.78394;
01:42:05.558,0.67041,0.00049,-0.78003;
01:42:05.578,0.67114,0.00562,-0.76953;
01:42:05.598,0.67603,0.00757,-0.76074;
01:42:05.618,0.67969,0.00562,-0.75928;
01:42:05.638,0.67505,-0.00391,-0.76465;
01:42:05.658,0.66235,-0.01489,-0.76782;
01:42:05.678,0.66846,-0.00806,-0.76514;
01:42:05.698,0.67285,0.00269,-0.76563;
01:42:05.718,0.67456,0.00464,-0.76782;
01:42:05.738,0.67554,0.00293,-0.77148;
01:42:05.758,0.67456,0.00171,-0.77002;
01:42:05.778,0.67163,0.00000,-0.77173;
01:42:05.798,0.67041,-0.00708,-0.77271;
01:42:05.818,0.66968,-0.01221,-0.76489;
01:42:05.838,0.67212,-0.00903,-0.76733;
01:42:05.858,0.67139,-0.00171,-0.77002;
01:42:05.878,0.67041,-0.00098,-0.77100;
01:42:05.898,0.67285,-0.00244,-0.76489;
01:42:05.918,0.67676,-0.00366,-0.76123;
01:42:05.938,0.67847,-0.00757,-0.76563;
01:42:05.958,0.67651,-0.00977,-0.76270;
01:42:05.978,0.67603,-0.01025,-0.75977;
01:42:05.998,0.67505,-0.00684,-0.76196;
01:42:06.018,0.67163,-0.00122,-0.76489;
01:42:06.038,0.67236,0.00342,-0.76733;
01:42:06.058,0.67505,0.00146,-0.77100;
01:42:06.078,0.67676,-0.00464,-0.76440;
01:42:06.098,0.67969,-0.01147,-0.76074;
01:42:06.118,0.67578,-0.01196,-0.76270;
01:42:06.138,0.67114,-0.00830,-0.77002;
01:42:06.158,0.67139,-0.00659,-0.76465;
01:42:06.178,0.67529,-0.00415,-0.76074;
01:42:06.198,0.67383,-0.00757,-0.76416;
01:42:06.218,0.67334,-0.01172,-0.76172;
01:42:06.238,0.67188,-0.01343,-0.76318;
01:42:06.258,0.67163,-0.01001,-0.77368;
01:42:06.278,0.67163,-0.00635,-0.77051;
01:42:06.298,0.67847,0.00146,-0.76807;
01:42:06.318,0.68408,0.00366,-0.76489;
01:42:06.338,0.68408,0.00049,-0.76172;
01:42:06.358,0.67822,-0.00391,-0.76782;
01:42:06.378,0.66772,-0.01123,-0.77075;
01:42:06.398,0.66553,-0.01318,-0.76392;
01:42:06.418,0.67261,-0.00952,-0.75854;
01:42:06.438,0.67993,-0.00391,-0.75610;
01:42:06.458,0.68018,-0.00317,-0.76050;
01:42:06.478,0.68066,-0.00195,-0.76709;
01:42:06.498,0.67920,-0.00122,-0.76831;
01:42:06.518,0.67139,-0.00293,-0.76807;
01:42:06.538,0.66577,-0.00854,-0.77100;
01:42:06.558,0.66455,-0.01416,-0.76904;
01:42:06.578,0.66724,-0.01099,-0.77100;
01:42:06.598,0.67090,-0.00342,-0.77856;
01:42:06.618,0.67065,-0.00073,-0.77612;
01:42:06.638,0.66821,-0.00928,-0.76538;
01:42:06.658,0.66675,-0.00952,-0.76709;
01:42:06.678,0.66724,-0.00098,-0.77197;
01:42:06.698,0.67236,0.00781,-0.77612;
01:42:06.718,0.67773,0.00732,-0.77490;
01:42:06.738,0.68311,0.00244,-0.76758;
01:42:06.758,0.68530,-0.00293,-0.76245;
01:42:06.778,0.67871,-0.00659,-0.75977;
01:42:06.798,0.67529,-0.00781,-0.76001;
01:42:06.818,0.67554,-0.00977,-0.76123;
01:42:06.838,0.67212,-0.01758,-0.75928;
01:42:06.858,0.66333,-0.02271,-0.75513;
01:42:06.878,0.66333,-0.01636,-0.75952;
01:42:06.898,0.66455,-0.00415,-0.76660;
01:42:06.918,0.66504,0.00781,-0.77075;
01:42:06.938,0.67065,0.01074,-0.76807;
01:42:06.958,0.67480,0.00073,-0.77173;
01:42:06.978,0.67188,-0.01660,-0.76660;
01:42:06.998,0.66333,-0.01807,-0.76074;
01:42:07.018,0.66162,-0.00146,-0.78125;
01:42:07.038,0.66699,0.00879,-0.79102;
01:42:07.058,0.67334,0.00610,-0.78857;
01:42:07.078,0.67725,0.00439,-0.78027;
01:42:07.098,0.67505,0.00977,-0.76929;
01:42:07.118,0.66821,0.01611,-0.76196;
01:42:07.138,0.66626,-0.02539,-0.75366;
01:42:07.158,0.66846,-0.03491,-0.74512;
01:42:07.178,0.67407,-0.02148,-0.74976;
01:42:07.198,0.67773,-0.00513,-0.75977;
01:42:07.218,0.68237,0.00342,-0.76465;
01:42:07.238,0.68188,0.00635,-0.76880;
01:42:07.258,0.67505,0.00659,-0.77466;
01:42:07.278,0.66284,0.01221,-0.78345;
01:42:07.298,0.65161,0.00610,-0.79541;
01:42:07.318,0.65356,-0.00342,-0.78979;
01:42:07.338,0.66235,-0.00464,-0.77441;
01:42:07.358,0.66724,-0.00293,-0.76563;
01:42:07.378,0.66626,-0.00073,-0.76489;
01:42:07.398,0.65918,0.00171,-0.76758;
01:42:07.418,0.65771,0.00244,-0.77246;
01:42:07.438,0.66260,-0.00073,-0.77905;
01:42:07.458,0.66895,-0.00708,-0.77466;
01:42:07.478,0.67456,-0.00977,-0.77173;
01:42:07.498,0.67651,-0.00488,-0.77002;
01:42:07.518,0.67603,-0.00073,-0.76807;
01:42:07.538,0.67212,0.00024,-0.76782;
01:42:07.558,0.66992,-0.00146,-0.76807;
01:42:07.578,0.66406,-0.00269,-0.77051;
01:42:07.598,0.65894,-0.00269,-0.77124;
01:42:07.618,0.65625,-0.00049,-0.77271;
01:42:07.638,0.66138,0.00513,-0.78223;
01:42:07.658,0.66577,0.00684,-0.78564;
01:42:07.678,0.66821,0.00928,-0.78369;
01:42:07.698,0.66675,0.01099,-0.78296;
01:42:07.718,0.66895,0.00464,-0.78101;
01:42:07.738,0.66504,-0.00049,-0.77246;
01:42:07.758,0.66504,0.00024,-0.77905;
01:42:07.778,0.66577,-0.00122,-0.76929;
01:42:07.798,0.66016,-0.00220,-0.76465;
01:42:07.818,0.66406,-0.00562,-0.77661;
01:42:07.838,0.66504,-0.01587,-0.77588;
01:42:07.858,0.66113,-0.01074,-0.78345;
01:42:07.878,0.66113,0.00366,-0.78003;
01:42:07.898,0.66016,0.01758,-0.77197;
01:42:07.918,0.65796,0.02197,-0.77759;
01:42:07.938,0.65552,0.01172,-0.79004;
01:42:07.958,0.65552,-0.00073,-0.78857;
01:42:07.978,0.65942,-0.00684,-0.77539;
01:42:07.998,0.66772,-0.00220,-0.76563;
01:42:08.018,0.67432,0.00366,-0.75635;
01:42:08.038,0.67993,0.00952,-0.74976;
01:42:08.058,0.68237,0.01099,-0.74927;
01:42:08.078,0.68042,0.00806,-0.75562;
01:42:08.098,0.67847,0.00073,-0.76807;
01:42:08.118,0.66821,-0.00439,-0.78052;
01:42:08.138,0.65649,-0.00244,-0.78198;
01:42:08.158,0.65576,-0.00317,-0.78784;
01:42:08.178,0.65283,-0.00244,-0.78833;
01:42:08.198,0.65601,0.00098,-0.78613;
01:42:08.218,0.65942,0.00439,-0.77856;
01:42:08.238,0.66602,0.00293,-0.77051;
01:42:08.258,0.67163,0.00171,-0.76514;
01:42:08.278,0.67456,0.00195,-0.76660;
01:42:08.298,0.67456,0.00244,-0.76392;
01:42:08.318,0.67261,0.00342,-0.76465;
01:42:08.338,0.67383,0.00195,-0.76660;
01:42:08.358,0.67529,0.00049,-0.77075;
01:42:08.378,0.67212,-0.00146,-0.77026;
01:42:08.398,0.66699,-0.00122,-0.76880;
01:42:08.418,0.66309,0.00146,-0.77051;
01:42:08.438,0.66284,0.00024,-0.77612;
01:42:08.458,0.66553,-0.00464,-0.77246;
01:42:08.478,0.66333,-0.00464,-0.76953;
01:42:08.498,0.66333,0.00049,-0.78174;
01:42:08.518,0.66602,0.00415,-0.78247;
01:42:08.538,0.66797,0.00903,-0.77441;
01:42:08.558,0.67432,0.01147,-0.76489;
01:42:08.578,0.67871,0.00708,-0.76099;
01:42:08.598,0.66382,-0.01782,-0.76636;
01:42:08.618,0.67407,0.00391,-0.76318;
01:42:08.638,0.67139,0.00220,-0.76465;
01:42:08.658,0.66919,-0.00098,-0.77661;
01:42:08.678,0.66772,-0.00635,-0.78027;
01:42:08.698,0.66797,-0.00684,-0.77710;
01:42:08.718,0.67114,-0.00293,-0.77515;
01:42:08.738,0.67188,0.00293,-0.77148;
01:42:08.758,0.67163,0.00415,-0.76978;
01:42:08.778,0.67163,0.00098,-0.76538;
01:42:08.798,0.67407,-0.00220,-0.76025;
01:42:08.818,0.67407,-0.00415,-0.75977;
01:42:08.838,0.67139,-0.00586,-0.76025;
01:42:08.858,0.67334,-0.00659,-0.76294;
01:42:08.878,0.67529,-0.00464,-0.76709;
01:42:08.898,0.67432,-0.00122,-0.76685;
01:42:08.918,0.67480,-0.00146,-0.76758;
01:42:08.938,0.67456,-0.00171,-0.76782;
01:42:08.958,0.67432,-0.00146,-0.76782;
01:42:08.978,0.67554,-0.00366,-0.77148;
01:42:08.998,0.66870,0.00122,-0.76367;
01:42:09.018,0.66772,-0.00073,-0.76294;
01:42:09.038,0.67163,-0.00757,-0.76587;
01:42:09.058,0.67407,-0.01123,-0.75977;
01:42:09.078,0.67505,-0.00488,-0.76929;
01:42:09.098,0.67407,-0.00098,-0.77734;
01:42:09.118,0.67383,0.00122,-0.77026;
01:42:09.138,0.67773,0.00586,-0.76392;
01:42:09.158,0.68140,0.00415,-0.75879;
01:42:09.178,0.68018,-0.00049,-0.76074;
01:42:09.198,0.66895,-0.01099,-0.76685;
01:42:09.218,0.66211,-0.01660,-0.76929;
01:42:09.238,0.66602,-0.00854,-0.76538;
01:42:09.258,0.67212,0.00024,-0.76392;
01:42:09.278,0.67285,0.00586,-0.76587;
01:42:09.298,0.67358,0.00342,-0.76758;
01:42:09.318,0.67554,0.00024,-0.76929;
01:42:09.338,0.67163,-0.00024,-0.76978;
01:42:09.358,0.66797,-0.00220,-0.77563;
01:42:09.378,0.66821,-0.00537,-0.77710;
01:42:09.398,0.67041,-0.00610,-0.77075;
01:42:09.418,0.67334,-0.00195,-0.77002;
01:42:09.438,0.67358,0.00146,-0.76587;
01:42:09.458,0.66992,-0.00220,-0.76807;
01:42:09.478,0.66943,-0.00342,-0.76758;
01:42:09.498,0.66943,-0.00464,-0.76929;
01:42:09.518,0.67261,-0.00293,-0.77148;
01:42:09.538,0.67261,0.00049,-0.76953;
01:42:09.558,0.66895,0.00122,-0.77197;
01:42:09.578,0.66846,0.00146,-0.77148;
01:42:09.598,0.66895,0.00000,-0.77295;
01:42:09.618,0.66919,-0.00269,-0.77490;
01:42:09.638,0.66772,-0.00269,-0.77051;
01:42:09.658,0.66992,-0.00317,-0.77197;
01:42:09.678,0.67041,-0.00171,-0.76978;
01:42:09.698,0.67041,-0.00098,-0.77271;
01:42:09.718,0.66968,0.00073,-0.77148;
01:42:09.738,0.67017,0.00171,-0.77026;
01:42:09.758,0.66992,0.00220,-0.76758;
01:42:09.778,0.66870,0.00098,-0.77563;
01:42:09.798,0.66797,-0.00146,-0.77319;
01:42:09.818,0.66602,-0.00122,-0.76611;
01:42:09.838,0.66577,-0.00098,-0.77612;
01:42:09.858,0.66553,-0.00439,-0.77808;
01:42:09.878,0.66992,-0.00439,-0.77686;
01:42:09.898,0.67236,0.00220,-0.76587;
01:42:09.918,0.66235,-0.00415,-0.77515;
01:42:09.938,0.65845,-0.01196,-0.77368;
01:42:09.958,0.66064,-0.00513,-0.76880;
01:42:09.978,0.66675,0.00171,-0.76929;
01:42:09.998,0.66724,0.00439,-0.77026;
01:42:10.018,0.66821,0.00781,-0.77222;
01:42:10.038,0.66919,0.00610,-0.77368;
01:42:10.058,0.66553,0.00439,-0.77490;
01:42:10.078,0.66431,0.00366,-0.77759;
01:42:10.098,0.66235,-0.00366,-0.78052;
01:42:10.118,0.66309,-0.00513,-0.77515;
01:42:10.138,0.66333,0.00195,-0.77100;
01:42:10.158,0.66431,0.00537,-0.77197;
01:42:10.178,0.66626,0.00342,-0.77246;
01:42:10.198,0.66431,0.00122,-0.77246;
01:42:10.218,0.66504,0.00122,-0.77417;
01:42:10.238,0.66284,0.00122,-0.77588;
01:42:10.258,0.66040,0.00098,-0.77368;
01:42:10.278,0.66602,0.00073,-0.77612;
01:42:10.298,0.66772,0.00269,-0.77393;
01:42:10.318,0.66235,0.00391,-0.77441;
01:42:10.338,0.66138,0.00317,-0.77856;
01:42:10.358,0.66162,0.00293,-0.77637;
01:42:10.378,0.66309,0.00146,-0.77686;
01:42:10.398,0.66235,0.00269,-0.77490;
01:42:10.418,0.66235,0.00269,-0.77441;
01:42:10.438,0.66260,0.00269,-0.77832;
01:42:10.458,0.66504,0.00073,-0.77930;
01:42:10.478,0.66333,0.00098,-0.77930;
01:42:10.498,0.66187,0.00562,-0.77515;
01:42:10.518,0.66333,0.00610,-0.77515;
01:42:10.538,0.66406,0.00269,-0.77637;
01:42:10.558,0.66064,0.00342,-0.77197;
01:42:10.578,0.66431,0.00220,-0.78076;
01:42:10.598,0.65869,0.00195,-0.77002;
01:42:10.618,0.65405,0.00586,-0.77197;
01:42:10.638,0.66187,-0.00049,-0.78125;
01:42:10.658,0.66382,-0.00513,-0.77783;
01:42:10.678,0.66602,-0.00024,-0.78003;
01:42:10.698,0.66650,0.01343,-0.77002;
01:42:10.718,0.66528,0.02368,-0.76782;
01:42:10.738,0.66089,0.01025,-0.77319;
01:42:10.758,0.65723,-0.00757,-0.77856;
01:42:10.778,0.65771,-0.01147,-0.77612;
01:42:10.798,0.65991,-0.00366,-0.77368;
01:42:10.818,0.66089,0.01123,-0.77319;
01:42:10.838,0.66211,0.00977,-0.77588;
01:42:10.858,0.66260,0.00635,-0.77539;
01:42:10.878,0.66333,0.00244,-0.77856;
01:42:10.898,0.66138,-0.00098,-0.78345;
01:42:10.918,0.65869,-0.00049,-0.78149;
01:42:10.938,0.65918,0.00610,-0.77563;
01:42:10.958,0.66235,0.00977,-0.77075;
01:42:10.978,0.66235,0.00610,-0.77563;
01:42:10.998,0.66333,0.00171,-0.77905;
01:42:11.018,0.66260,-0.00122,-0.77563;
01:42:11.038,0.65894,0.00000,-0.77417;
01:42:11.058,0.65820,0.00195,-0.77319;
01:42:11.078,0.66016,0.00439,-0.77368;
01:42:11.098,0.66577,0.00562,-0.77490;
01:42:11.118,0.66797,0.00439,-0.77954;
01:42:11.138,0.66479,0.00366,-0.77710;
01:42:11.158,0.65991,0.00317,-0.77661;
01:42:11.178,0.66162,0.00366,-0.77563;
01:42:11.198,0.66309,0.00269,-0.77466;
01:42:11.218,0.66138,0.00171,-0.77515;
01:42:11.238,0.66455,0.00146,-0.77539;
01:42:11.258,0.66406,0.00195,-0.77539;
01:42:11.278,0.66406,0.00391,-0.77344;
01:42:11.298,0.66357,0.00415,-0.77197;
01:42:11.318,0.66577,0.00024,-0.77466;
01:42:11.338,0.66699,0.00220,-0.77490;
01:42:11.358,0.66528,0.00488,-0.77222;
01:42:11.378,0.66748,0.00391,-0.77441;
01:42:11.398,0.66724,0.00220,-0.77173;
01:42:11.418,0.66528,0.00269,-0.77002;
01:42:11.438,0.66699,0.00171,-0.77417;
01:42:11.458,0.66406,0.00024,-0.76416;
01:42:11.478,0.66406,-0.00171,-0.77808;
01:42:11.498,0.66528,-0.00269,-0.78418;
01:42:11.518,0.66846,0.00171,-0.77759;
01:42:11.538,0.67114,0.00977,-0.76904;
01:42:11.558,0.67358,0.01294,-0.75952;
01:42:11.578,0.67529,0.00757,-0.76416;
01:42:11.598,0.66699,-0.00537,-0.76978;
01:42:11.618,0.65771,-0.01514,-0.77246;
01:42:11.638,0.66089,-0.01099,-0.76880;
01:42:11.658,0.66797,0.00146,-0.76709;
01:42:11.678,0.67017,0.00903,-0.76538;
01:42:11.698,0.67139,0.00903,-0.76929;
01:42:11.718,0.67358,0.00635,-0.76978;
01:42:11.738,0.67041,0.00415,-0.77075;
01:42:11.758,0.66724,0.00073,-0.77954;
01:42:11.778,0.66748,-0.00439,-0.76929;
01:42:11.798,0.66992,-0.00073,-0.77246;
01:42:11.818,0.67065,0.00342,-0.76929;
01:42:11.838,0.67261,0.00342,-0.77246;
01:42:11.858,0.67114,0.00098,-0.76855;
01:42:11.878,0.67114,-0.00073,-0.76709;
01:42:11.898,0.66943,-0.00220,-0.76709;
01:42:11.918,0.66992,-0.00122,-0.76514;
01:42:11.938,0.67236,-0.00098,-0.76758;
01:42:11.958,0.67212,0.00049,-0.76978;
01:42:11.978,0.67139,0.00195,-0.76929;
01:42:11.998,0.67188,0.00024,-0.76880;
01:42:12.018,0.67114,0.00049,-0.76978;
01:42:12.038,0.67139,-0.00122,-0.76758;
01:42:12.058,0.67285,-0.00269,-0.76904;
01:42:12.078,0.67236,-0.00269,-0.76904;
01:42:12.098,0.67236,-0.00244,-0.76831;
01:42:12.118,0.67065,-0.00146,-0.76660;
01:42:12.138,0.66895,-0.00073,-0.76758;
01:42:12.158,0.67090,-0.00122,-0.76611;
01:42:12.178,0.67334,-0.00269,-0.76880;
01:42:12.198,0.67334,-0.00269,-0.77075;
01:42:12.218,0.67310,-0.00122,-0.76929;
01:42:12.238,0.67310,0.00122,-0.76660;
01:42:12.258,0.67261,-0.00317,-0.76782;
01:42:12.278,0.66992,-0.00342,-0.76294;
01:42:12.298,0.67139,-0.00146,-0.76733;
01:42:12.318,0.67358,-0.00073,-0.76660;
01:42:12.338,0.66870,-0.00244,-0.76538;
01:42:12.358,0.67017,-0.00098,-0.77905;
01:42:12.378,0.67114,-0.00122,-0.77563;
01:42:12.398,0.67310,0.00293,-0.76758;
01:42:12.418,0.67920,0.00806,-0.76172;
01:42:12.438,0.67920,0.00391,-0.76050;
01:42:12.458,0.67236,-0.00439,-0.76563;
01:42:12.478,0.66211,-0.01294,-0.76978;
01:42:12.498,0.66138,-0.01123,-0.76978;
01:42:12.518,0.67114,-0.00269,-0.76587;
01:42:12.538,0.67407,0.00537,-0.76367;
01:42:12.558,0.67261,0.00977,-0.76587;
01:42:12.578,0.67383,0.00610,-0.76855;
01:42:12.598,0.67407,0.00220,-0.76660;
01:42:12.618,0.66846,0.00171,-0.77222;
01:42:12.638,0.66553,-0.00122,-0.77710;
01:42:12.658,0.66797,-0.00586,-0.77368;
01:42:12.678,0.66968,-0.00488,-0.76953;
01:42:12.698,0.67090,0.00073,-0.76953;
01:42:12.718,0.67139,0.00366,-0.77148;
01:42:12.738,0.66992,0.00293,-0.77148;
01:42:12.758,0.66602,0.00146,-0.76880;
01:42:12.778,0.66650,0.00000,-0.76831;
01:42:12.798,0.67114,0.00049,-0.76929;
01:42:12.818,0.67090,0.00073,-0.77075;
01:42:12.838,0.66846,0.00049,-0.77393;
01:42:12.858,0.66675,0.00122,-0.77368;
01:42:12.878,0.66797,0.00073,-0.77222;
01:42:12.898,0.66895,0.00171,-0.77075;
01:42:12.918,0.66797,0.00195,-0.77124;
01:42:12.938,0.66748,0.00098,-0.77466;
01:42:12.958,0.66602,0.00171,-0.77148;
01:42:12.978,0.66675,0.00073,-0.77051;
01:42:12.998,0.66846,0.00024,-0.77441;
01:42:13.018,0.66724,0.00146,-0.77417;
01:42:13.038,0.66748,0.00269,-0.77417;
01:42:13.058,0.66699,0.00586,-0.77271;
01:42:13.078,0.66724,0.00464,-0.77319;
01:42:13.098,0.66675,0.00415,-0.77051;
01:42:13.118,0.66602,0.00391,-0.77417;
01:42:13.138,0.66479,0.00049,-0.76953;
01:42:13.158,0.66479,-0.00317,-0.77832;
01:42:13.178,0.66846,-0.00269,-0.77759;
01:42:13.198,0.67090,0.00366,-0.77368;
01:42:13.218,0.66919,0.01733,-0.76733;
01:42:13.238,0.66650,0.01733,-0.76611;
01:42:13.258,0.66211,-0.00122,-0.77710;
01:42:13.278,0.65698,-0.01147,-0.77271;
01:42:13.298,0.66016,-0.00635,-0.77075;
01:42:13.318,0.66553,0.00122,-0.77075;
01:42:13.338,0.66626,0.00586,-0.77075;
01:42:13.358,0.66553,0.00732,-0.77515;
01:42:13.378,0.66602,0.00708,-0.77393;
01:42:13.398,0.66309,0.00586,-0.77856;
01:42:13.418,0.66235,0.00244,-0.78027;
01:42:13.438,0.66309,-0.00171,-0.78076;
01:42:13.458,0.66064,-0.00122,-0.77759;
01:42:13.478,0.66089,0.00635,-0.77344;
01:42:13.498,0.66382,0.00757,-0.77368;
01:42:13.518,0.66431,0.00269,-0.77637;
01:42:13.538,0.66357,0.00073,-0.77563;
01:42:13.558,0.66382,0.00146,-0.77490;
01:42:13.578,0.65942,0.00342,-0.77417;
01:42:13.598,0.65991,0.00391,-0.77344;
01:42:13.618,0.66528,0.00537,-0.77197;
01:42:13.638,0.66553,0.00439,-0.77539;
01:42:13.658,0.66309,0.00391,-0.77563;
01:42:13.678,0.66064,0.00317,-0.77612;
01:42:13.698,0.65991,0.00293,-0.77612;
01:42:13.718,0.66260,0.00220,-0.77539;
01:42:13.738,0.66333,0.00317,-0.77466;
01:42:13.758,0.66357,0.00439,-0.77417;
01:42:13.778,0.66309,0.00513,-0.77319;
01:42:13.798,0.66187,0.00439,-0.77490;
01:42:13.818,0.66162,0.00366,-0.77588;
01:42:13.838,0.66235,0.00244,-0.77563;
01:42:13.858,0.66357,0.00244,-0.77515;
01:42:13.878,0.66455,0.00024,-0.77808;
01:42:13.898,0.66406,0.00146,-0.77686;
01:42:13.918,0.66211,0.00635,-0.77490;
01:42:13.938,0.66016,0.00830,-0.77368;
01:42:13.958,0.66333,0.00293,-0.77759;
01:42:13.978,0.66113,0.00195,-0.77271;
01:42:13.998,0.66113,0.00415,-0.77905;
01:42:14.018,0.66064,0.00244,-0.77197;
01:42:14.038,0.65698,0.00586,-0.76880;
01:42:14.058,0.66187,0.00244,-0.78320;
01:42:14.078,0.66309,-0.00391,-0.78027;
01:42:14.098,0.66309,0.00220,-0.77197;
01:42:14.118,0.66284,0.01221,-0.76953;
01:42:14.138,0.65894,-0.00220,-0.77930;
01:42:14.158,0.65747,-0.00903,-0.77637;
01:42:14.178,0.65771,-0.00464,-0.77319;
01:42:14.198,0.65967,0.00586,-0.77197;
01:42:14.218,0.66235,0.01196,-0.77222;
01:42:14.238,0.66479,0.00952,-0.77539;
01:42:14.258,0.66431,0.00708,-0.77466;
01:42:14.278,0.66260,0.00708,-0.77563;
01:42:14.298,0.66064,0.00171,-0.78345;
01:42:14.318,0.65796,-0.00098,-0.78174;
01:42:14.338,0.66016,0.00366,-0.77832;
01:42:14.358,0.66235,0.00806,-0.77515;
01:42:14.378,0.66406,0.00757,-0.77441;
01:42:14.398,0.66528,0.00366,-0.77686;
01:42:14.418,0.66455,0.00098,-0.77246;
01:42:14.438,0.66187,0.00073,-0.77075;
01:42:14.458,0.65967,0.00293,-0.77222;
01:42:14.478,0.65967,0.00659,-0.77026;
01:42:14.498,0.66553,0.00830,-0.77026;
01:42:14.518,0.66772,0.00781,-0.77368;
01:42:14.538,0.66357,0.00610,-0.77637;
01:42:14.558,0.66284,0.00366,-0.77734;
01:42:14.578,0.66162,0.00244,-0.77515;
01:42:14.598,0.66357,0.00220,-0.77344;
01:42:14.618,0.66577,0.00244,-0.77417;
01:42:14.638,0.66626,0.00366,-0.77368;
01:42:14.658,0.66553,0.00415,-0.77222;
01:42:14.678,0.66528,0.00439,-0.77148;
01:42:14.698,0.66553,0.00488,-0.77100;
01:42:14.718,0.66577,0.00464,-0.77173;
01:42:14.738,0.66602,0.00293,-0.77393;
01:42:14.758,0.66675,0.00098,-0.77417;
01:42:14.778,0.66626,0.00342,-0.77368;
01:42:14.798,0.66479,0.00537,-0.77026;
01:42:14.818,0.66895,0.00439,-0.77319;
01:42:14.838,0.66797,0.00171,-0.77124;
01:42:14.858,0.66357,0.00195,-0.76636;
01:42:14.878,0.66870,0.00269,-0.77319;
01:42:14.898,0.66699,0.00122,-0.76416;
01:42:14.918,0.66382,-0.00024,-0.77563;
01:42:14.938,0.66455,0.00122,-0.78076;
01:42:14.958,0.66968,0.00586,-0.77588;
01:42:14.978,0.67114,0.01172,-0.77026;
01:42:14.998,0.67456,0.01001,-0.76099;
01:42:15.018,0.67700,0.00415,-0.76440;
01:42:15.038,0.66797,-0.00439,-0.77124;
01:42:15.058,0.66016,-0.01001,-0.76587;
01:42:15.078,0.66772,0.00073,-0.76758;
01:42:15.098,0.67163,0.01221,-0.76343;
01:42:15.118,0.67407,0.01099,-0.76611;
01:42:15.138,0.67358,0.00610,-0.77051;
01:42:15.158,0.67065,0.00439,-0.76880;
01:42:15.178,0.66772,-0.00024,-0.77368;
01:42:15.198,0.66797,-0.00415,-0.77344;
01:42:15.218,0.66772,-0.00513,-0.77124;
01:42:15.238,0.66992,-0.00024,-0.76904;
01:42:15.258,0.67090,0.00513,-0.76978;
01:42:15.278,0.67285,0.00488,-0.77075;
01:42:15.298,0.67212,0.00171,-0.76831;
01:42:15.318,0.67285,-0.00146,-0.76514;
01:42:15.338,0.67261,-0.00317,-0.76367;
01:42:15.358,0.67041,-0.00293,-0.76514;
01:42:15.378,0.67334,-0.00220,-0.76685;
01:42:15.398,0.67383,0.00049,-0.77002;
01:42:15.418,0.67212,0.00073,-0.77051;
01:42:15.438,0.67139,0.00122,-0.76709;
01:42:15.458,0.67188,0.00098,-0.76440;
01:42:15.478,0.67310,-0.00049,-0.76636;
01:42:15.498,0.67383,-0.00146,-0.76733;
01:42:15.518,0.67358,-0.00317,-0.76538;
01:42:15.538,0.67212,-0.00220,-0.77124;
01:42:15.558,0.67358,0.00049,-0.76343;
01:42:15.578,0.67432,0.00122,-0.76294;
01:42:15.598,0.67407,-0.00073,-0.76392;
01:42:15.618,0.67236,-0.00122,-0.76538;
01:42:15.638,0.67627,-0.00269,-0.76660;
01:42:15.658,0.67358,-0.00317,-0.76416;
01:42:15.678,0.67163,-0.00146,-0.77344;
01:42:15.698,0.67236,-0.00049,-0.77515;
01:42:15.718,0.67407,0.00439,-0.76636;
01:42:15.738,0.67969,0.00537,-0.76074;
01:42:15.758,0.68140,0.00024,-0.75854;
01:42:15.778,0.67651,-0.00732,-0.76196;
01:42:15.798,0.66748,-0.01367,-0.76782;
01:42:15.818,0.66382,-0.01050,-0.76611;
01:42:15.838,0.67114,-0.00269,-0.76538;
01:42:15.858,0.67627,0.00537,-0.76270;
01:42:15.878,0.67798,0.00635,-0.76343;
01:42:15.898,0.67676,0.00244,-0.77100;
01:42:15.918,0.67456,-0.00024,-0.76953;
01:42:15.938,0.66992,-0.00049,-0.77271;
01:42:15.958,0.66748,-0.00366,-0.77490;
01:42:15.978,0.66968,-0.00830,-0.76904;
01:42:15.998,0.67310,-0.00610,-0.76563;
01:42:16.018,0.67065,0.00098,-0.76758;
01:42:16.038,0.67065,-0.00049,-0.76758;
01:42:16.058,0.67090,-0.00146,-0.76831;
01:42:16.078,0.66919,-0.00269,-0.76929;
01:42:16.098,0.67261,-0.00220,-0.76758;
01:42:16.118,0.67651,0.00073,-0.76953;
01:42:16.138,0.67505,0.00024,-0.76929;
01:42:16.158,0.67065,-0.00073,-0.77100;
01:42:16.178,0.67041,-0.00024,-0.77075;
01:42:16.198,0.67065,-0.00024,-0.76953;
01:42:16.218,0.67065,-0.00146,-0.76880;
01:42:16.238,0.67065,-0.00098,-0.76831;
01:42:16.258,0.67090,0.00000,-0.76929;
01:42:16.278,0.67065,0.00098,-0.76685;
01:42:16.298,0.67188,0.00098,-0.77002;
01:42:16.318,0.67188,-0.00024,-0.77344;
01:42:16.338,0.67017,-0.00049,-0.77173;
01:42:16.358,0.66919,0.00146,-0.76831;
01:42:16.378,0.66895,0.00415,-0.76904;
01:42:16.398,0.66919,0.00073,-0.76978;
01:42:16.418,0.66968,-0.00342,-0.76416;
01:42:16.438,0.66870,-0.00244,-0.77100;
01:42:16.458,0.66699,-0.00269,-0.77783;
01:42:16.478,0.66699,0.00317,-0.77124;
01:42:16.498,0.67456,0.00928,-0.76489;
01:42:16.518,0.67334,0.00854,-0.76489;
01:42:16.538,0.66772,-0.00146,-0.77051;
01:42:16.558,0.66309,-0.00977,-0.77319;
01:42:16.578,0.66284,-0.00708,-0.77026;
01:42:16.598,0.66772,-0.00146,-0.76733;
01:42:16.618,0.66943,0.00391,-0.76782;
01:42:16.638,0.66919,0.00781,-0.76929;
01:42:16.658,0.67065,0.00781,-0.77271;
01:42:16.678,0.66895,0.00635,-0.77002;
01:42:16.698,0.66675,0.00415,-0.77539;
01:42:16.718,0.66431,0.00024,-0.77905;
01:42:16.738,0.66504,-0.00586,-0.77466;
01:42:16.758,0.66699,-0.00146,-0.77344;
01:42:16.778,0.66748,0.00464,-0.77124;
01:42:16.798,0.66626,0.00415,-0.77124;
01:42:16.818,0.66797,0.00122,-0.77124;
01:42:16.838,0.66699,0.00073,-0.77173;
01:42:16.858,0.66382,0.00244,-0.77368;
01:42:16.878,0.66284,0.00244,-0.77173;
01:42:16.898,0.66553,0.00220,-0.77173;
01:42:16.918,0.66919,0.00220,-0.77173;
01:42:16.938,0.66724,0.00220,-0.77368;
01:42:16.958,0.66431,0.00122,-0.77661;
01:42:16.978,0.66382,0.00171,-0.77539;
01:42:16.998,0.66431,0.00049,-0.77490;
01:42:17.018,0.66406,0.00146,-0.77661;
01:42:17.038,0.66479,0.00171,-0.77490;
01:42:17.058,0.66528,0.00269,-0.77393;
01:42:17.078,0.66504,0.00317,-0.77319;
01:42:17.098,0.66455,0.00195,-0.77612;
01:42:17.118,0.66357,-0.00024,-0.77783;
01:42:17.138,0.66479,0.00171,-0.77734;
01:42:17.158,0.66138,0.00488,-0.77612;
01:42:17.178,0.66309,0.00391,-0.77759;
01:42:17.198,0.66406,0.00342,-0.77075;
01:42:17.218,0.66577,0.00269,-0.77637;
01:42:17.238,0.66455,0.00293,-0.77515;
01:42:17.258,0.65723,0.00293,-0.76807;
01:42:17.278,0.66211,0.00073,-0.78223;
01:42:17.298,0.66406,-0.00415,-0.77905;
01:42:17.318,0.66260,0.01709,-0.76929;
01:42:17.338,0.66089,-0.00220,-0.77905;
01:42:17.358,0.65942,-0.01123,-0.78027;
01:42:17.378,0.65723,-0.00537,-0.77466;
01:42:17.398,0.65991,0.00415,-0.77393;
01:42:17.418,0.66333,0.00757,-0.77734;
01:42:17.438,0.66260,0.00537,-0.77979;
01:42:17.458,0.66284,0.00146,-0.78345;
01:42:17.478,0.65820,-0.00269,-0.78271;
01:42:17.498,0.65747,0.00171,-0.77856;
01:42:17.518,0.66162,0.00952,-0.77393;
01:42:17.538,0.66382,0.00903,-0.77319;
01:42:17.558,0.66577,0.00366,-0.77734;
01:42:17.578,0.66309,0.00073,-0.77466;
01:42:17.598,0.66064,0.00049,-0.77393;
01:42:17.618,0.65894,0.00122,-0.77515;
01:42:17.638,0.65820,0.00415,-0.77026;
01:42:17.658,0.66479,0.00903,-0.77173;
01:42:17.678,0.66992,0.01001,-0.77368;
01:42:17.698,0.66455,0.00635,-0.77686;
01:42:17.718,0.66138,0.00464,-0.77686;
01:42:17.738,0.66113,0.00244,-0.77661;
01:42:17.758,0.66187,0.00049,-0.77661;
01:42:17.778,0.66187,0.00122,-0.77734;
01:42:17.798,0.66260,0.00366,-0.77466;
01:42:17.818,0.66528,0.00415,-0.77148;
01:42:17.838,0.66821,0.00366,-0.77515;
01:42:17.858,0.66772,0.00342,-0.77563;
01:42:17.878,0.66333,0.00537,-0.77100;
01:42:17.898,0.66431,0.00391,-0.76904;
01:42:17.918,0.66650,0.00098,-0.77075;
01:42:17.938,0.66650,-0.00122,-0.76538;
01:42:17.958,0.66675,-0.00049,-0.77661;
01:42:17.978,0.66626,0.00049,-0.78735;
01:42:17.998,0.66431,0.00439,-0.78198;
01:42:18.018,0.66846,0.00977,-0.77246;
01:42:18.038,0.67334,0.01245,-0.76123;
01:42:18.058,0.67456,0.00610,-0.76318;
01:42:18.078,0.66821,-0.00439,-0.76978;
01:42:18.098,0.65942,-0.01318,-0.77148;
01:42:18.118,0.66040,-0.01025,-0.77026;
01:42:18.138,0.66553,0.00195,-0.76831;
01:42:18.158,0.66797,0.01050,-0.76465;
01:42:18.178,0.67090,0.01050,-0.76855;
01:42:18.198,0.67261,0.00610,-0.77246;
01:42:18.218,0.66943,0.00488,-0.77124;
01:42:18.238,0.66821,0.00073,-0.77759;
01:42:18.258,0.66846,-0.00317,-0.77710;
01:42:18.278,0.66821,-0.00488,-0.77148;
01:42:18.298,0.66846,-0.00220,-0.77002;
01:42:18.318,0.67065,0.00488,-0.76904;
01:42:18.338,0.67261,0.00562,-0.76904;
01:42:18.358,0.67188,-0.00146,-0.76685;
01:42:18.378,0.66943,-0.00244,-0.76563;
01:42:18.398,0.66895,-0.00293,-0.76538;
01:42:18.418,0.67163,-0.00171,-0.76758;
01:42:18.438,0.67456,0.00122,-0.76929;
01:42:18.458,0.67285,0.00293,-0.77051;
01:42:18.478,0.67139,0.00122,-0.77222;
01:42:18.498,0.67114,0.00049,-0.77100;
01:42:18.518,0.67090,0.00073,-0.76758;
01:42:18.538,0.67139,-0.00049,-0.76758;
01:42:18.558,0.67139,-0.00244,-0.76807;
01:42:18.578,0.67285,-0.00439,-0.76416;
01:42:18.598,0.67407,-0.00293,-0.76855;
01:42:18.618,0.67236,-0.00244,-0.77075;
01:42:18.638,0.67139,-0.00171,-0.76563;
01:42:18.658,0.67188,0.00073,-0.76440;
01:42:18.678,0.67090,0.00098,-0.76221;
01:42:18.698,0.67407,0.00049,-0.76636;
01:42:18.718,0.67676,-0.00293,-0.76367;
01:42:18.738,0.67139,-0.00415,-0.76392;
01:42:18.758,0.66943,-0.00342,-0.77759;
01:42:18.778,0.67139,0.00049,-0.77588;
01:42:18.798,0.67383,0.00464,-0.76465;
01:42:18.818,0.67847,0.00439,-0.75903;
01:42:18.838,0.67798,-0.00708,-0.76440;
01:42:18.858,0.66479,-0.01611,-0.76416;
01:42:18.878,0.66748,-0.01196,-0.76318;
01:42:18.898,0.67432,-0.00220,-0.76245;
01:42:18.918,0.67529,0.00488,-0.76343;
01:42:18.938,0.67334,0.00830,-0.76636;
01:42:18.958,0.67529,0.00391,-0.76953;
01:42:18.978,0.67334,-0.00024,-0.76709;
01:42:18.998,0.66919,-0.00073,-0.77100;
01:42:19.018,0.66699,-0.00439,-0.77295;
01:42:19.038,0.67017,-0.00830,-0.76685;
01:42:19.058,0.67407,-0.00439,-0.76636;
01:42:19.078,0.67456,-0.00073,-0.76904;
01:42:19.098,0.67188,0.00000,-0.77002;
01:42:19.118,0.66943,0.00000,-0.76611;
01:42:19.138,0.67065,0.00000,-0.76636;
01:42:19.158,0.66968,-0.00171,-0.76782;
01:42:19.178,0.67163,-0.00391,-0.76587;
01:42:19.198,0.67358,-0.00293,-0.76660;
01:42:19.218,0.67188,-0.00049,-0.77075;
01:42:19.238,0.66846,0.00024,-0.77344;
01:42:19.258,0.66772,-0.00049,-0.77344;
01:42:19.278,0.66919,-0.00146,-0.77075;
01:42:19.298,0.66992,-0.00220,-0.76953;
01:42:19.318,0.67065,-0.00098,-0.77075;
01:42:19.338,0.66919,0.00073,-0.77051;
01:42:19.358,0.66895,0.00073,-0.77222;
01:42:19.378,0.66992,-0.00146,-0.76880;
01:42:19.398,0.66992,-0.00122,-0.76758;
01:42:19.418,0.66968,0.00000,-0.77100;
01:42:19.438,0.66870,0.00000,-0.77393;
01:42:19.458,0.66699,0.00073,-0.76904;
01:42:19.478,0.66748,0.00171,-0.77515;
01:42:19.498,0.66797,0.00000,-0.77124;
01:42:19.518,0.66528,0.00000,-0.76294;
01:42:19.538,0.66602,0.00098,-0.77539;
01:42:19.558,0.66577,-0.00293,-0.77783;
01:42:19.578,0.66821,-0.00293,-0.77417;
01:42:19.598,0.67261,0.00366,-0.76782;
01:42:19.618,0.67407,0.01074,-0.76172;
01:42:19.638,0.67041,0.00903,-0.76416;
01:42:19.658,0.66333,-0.00513,-0.77271;
01:42:19.678,0.66211,-0.01196,-0.77100;
01:42:19.698,0.66455,-0.00562,-0.76758;
01:42:19.718,0.66724,0.00195,-0.76782;
01:42:19.738,0.66772,0.00562,-0.76782;
01:42:19.758,0.66919,0.00781,-0.76953;
01:42:19.778,0.66992,0.00610,-0.77319;
01:42:19.798,0.66553,0.00171,-0.77832;
01:42:19.818,0.66187,-0.00342,-0.77759;
01:42:19.838,0.66431,-0.00439,-0.77295;
01:42:19.858,0.66528,0.00049,-0.77148;
01:42:19.878,0.66577,0.00586,-0.77197;
01:42:19.898,0.66626,0.00415,-0.77368;
01:42:19.918,0.66602,0.00098,-0.77148;
01:42:19.938,0.66382,0.00171,-0.77295;
01:42:19.958,0.66089,0.00146,-0.77393;
01:42:19.978,0.66138,0.00024,-0.77417;
01:42:19.998,0.66602,0.00146,-0.77563;
01:42:20.018,0.66748,0.00366,-0.77588;
01:42:20.038,0.66577,0.00269,-0.77710;
01:42:20.058,0.66479,0.00122,-0.77515;
01:42:20.078,0.66211,0.00269,-0.77441;
01:42:20.098,0.66333,0.00244,-0.77588;
01:42:20.118,0.66211,0.00171,-0.77441;
01:42:20.138,0.66382,0.00098,-0.77368;
01:42:20.158,0.66431,0.00244,-0.77344;
01:42:20.178,0.66528,0.00439,-0.77612;
01:42:20.198,0.66577,0.00317,-0.77563;
01:42:20.218,0.66406,0.00464,-0.77563;
01:42:20.238,0.66284,0.00708,-0.77295;
01:42:20.258,0.66431,0.00439,-0.77588;
01:42:20.278,0.66333,0.00220,-0.78271;
01:42:20.298,0.65527,0.00488,-0.76294;
01:42:20.318,0.65918,0.00366,-0.77905;
01:42:20.338,0.66626,-0.00415,-0.78149;
01:42:20.358,0.66577,-0.00269,-0.78003;
01:42:20.378,0.66821,0.00830,-0.77441;
01:42:20.398,0.66919,0.02124,-0.76367;
01:42:20.418,0.66357,0.01587,-0.76611;
01:42:20.438,0.65698,-0.00220,-0.77930;
01:42:20.458,0.65771,-0.01099,-0.77490;
01:42:20.478,0.65967,-0.00928,-0.77148;
01:42:20.498,0.66089,0.00391,-0.77246;
01:42:20.518,0.66333,0.01221,-0.76904;
01:42:20.538,0.66724,0.01172,-0.77344;
01:42:20.558,0.66650,0.01001,-0.77417;
01:42:20.578,0.66235,0.00513,-0.77563;
01:42:20.598,0.66260,0.00171,-0.78076;
01:42:20.618,0.66064,-0.00146,-0.78101;
01:42:20.638,0.66016,-0.00049,-0.77637;
01:42:20.658,0.66309,0.00610,-0.77197;
01:42:20.678,0.66357,0.01025,-0.76855;
01:42:20.698,0.66821,0.00610,-0.77319;
01:42:20.718,0.66602,0.00098,-0.77466;
01:42:20.738,0.66187,-0.00024,-0.77271;
01:42:20.758,0.66162,0.00269,-0.77002;
01:42:20.778,0.66748,0.00513,-0.77368;
01:42:20.798,0.66870,0.00684,-0.77271;
01:42:20.818,0.66846,0.00513,-0.77246;
01:42:20.838,0.66602,0.00220,-0.77563;
01:42:20.858,0.66479,0.00146,-0.77490;
01:42:20.878,0.66333,0.00098,-0.77295;
01:42:20.898,0.66406,0.00024,-0.77197;
01:42:20.918,0.66699,0.00073,-0.77344;
01:42:20.938,0.66821,0.00244,-0.76855;
01:42:20.958,0.66748,0.00415,-0.76758;
01:42:20.978,0.66772,0.00415,-0.77100;
01:42:20.998,0.66821,0.00244,-0.77466;
01:42:21.018,0.66797,0.00171,-0.77612;
01:42:21.038,0.66846,0.00366,-0.77368;
01:42:21.058,0.66772,0.00317,-0.77051;
01:42:21.078,0.66895,0.00098,-0.77173;
01:42:21.098,0.66431,0.00171,-0.76782;
01:42:21.118,0.66626,0.00342,-0.77197;
01:42:21.138,0.66895,0.00024,-0.76880;
01:42:21.158,0.66431,-0.00122,-0.76782;
01:42:21.178,0.66675,-0.00220,-0.78003;
01:42:21.198,0.66846,0.00073,-0.77808;
01:42:21.218,0.67017,0.01123,-0.76123;
01:42:21.238,0.67627,0.00903,-0.75977;
01:42:21.258,0.67383,-0.00098,-0.76538;
01:42:21.278,0.66162,-0.01270,-0.77075;
01:42:21.298,0.65820,-0.01465,-0.77002;
01:42:21.318,0.66650,-0.00293,-0.76758;
01:42:21.338,0.67188,0.00757,-0.76416;
01:42:21.358,0.67407,0.01074,-0.76611;
01:42:21.378,0.67480,0.00684,-0.77100;
01:42:21.398,0.67261,0.00513,-0.76978;
01:42:21.418,0.66870,0.00293,-0.77393;
01:42:21.438,0.66772,-0.00391,-0.77490;
01:42:21.458,0.66943,-0.00854,-0.76807;
01:42:21.478,0.67114,-0.00488,-0.76758;
01:42:21.498,0.67310,0.00244,-0.76904;
01:42:21.518,0.67236,0.00415,-0.77026;
01:42:21.538,0.67163,0.00342,-0.76782;
01:42:21.558,0.67236,-0.00073,-0.76489;
01:42:21.578,0.67188,-0.00293,-0.76367;
01:42:21.598,0.67090,-0.00366,-0.76367;
01:42:21.618,0.67236,-0.00293,-0.76587;
01:42:21.638,0.67480,0.00000,-0.76782;
01:42:21.658,0.67358,0.00049,-0.76831;
01:42:21.678,0.67310,0.00049,-0.76685;
01:42:21.698,0.67212,-0.00024,-0.76489;
01:42:21.718,0.67090,-0.00122,-0.76514;
01:42:21.738,0.67188,-0.00073,-0.76733;
01:42:21.758,0.67261,-0.00122,-0.76880;
01:42:21.778,0.67480,-0.00195,-0.76831;
01:42:21.798,0.67505,-0.00073,-0.76611;
01:42:21.818,0.67090,0.00000,-0.76587;
01:42:21.838,0.67285,-0.00342,-0.77051;
01:42:21.858,0.67188,-0.00269,-0.76465;
01:42:21.878,0.67188,-0.00024,-0.77002;
01:42:21.898,0.67310,-0.00122,-0.76758;
01:42:21.918,0.67017,-0.00122,-0.76709;
01:42:21.938,0.66870,-0.00024,-0.78101;
01:42:21.958,0.67017,-0.00049,-0.77905;
01:42:21.978,0.67383,0.00391,-0.77026;
01:42:21.998,0.67871,0.00488,-0.76294;
01:42:22.018,0.67871,-0.00024,-0.76270;
01:42:22.038,0.67041,-0.00635,-0.76660;
01:42:22.058,0.66113,-0.01172,-0.76953;
01:42:22.078,0.66406,-0.00830,-0.76880;
01:42:22.098,0.67065,-0.00098,-0.76587;
01:42:22.118,0.67261,0.00659,-0.76538;
01:42:22.138,0.67310,0.00635,-0.76855;
01:42:22.158,0.67139,0.00269,-0.77002;
01:42:22.178,0.66675,-0.00024,-0.77393;
01:42:22.198,0.66431,-0.00464,-0.77661;
01:42:22.218,0.66504,-0.00757,-0.77100;
01:42:22.238,0.67041,-0.00464,-0.76831;
01:42:22.258,0.67188,0.00146,-0.76807;
01:42:22.278,0.67139,0.00464,-0.77075;
01:42:22.298,0.66943,0.00366,-0.76978;
01:42:22.318,0.66895,0.00073,-0.76880;
01:42:22.338,0.66675,-0.00024,-0.77100;
01:42:22.358,0.66455,-0.00220,-0.77002;
01:42:22.378,0.66748,-0.00146,-0.76904;
01:42:22.398,0.67017,0.00049,-0.76880;
01:42:22.418,0.66992,0.00000,-0.77222;
01:42:22.438,0.66846,0.00024,-0.77393;
01:42:22.458,0.66748,0.00000,-0.77368;
01:42:22.478,0.66699,-0.00024,-0.77393;
01:42:22.498,0.66748,0.00146,-0.77148;
01:42:22.518,0.66943,0.00146,-0.77026;
01:42:22.538,0.66943,0.00024,-0.77222;
01:42:22.558,0.66626,0.00244,-0.77148;
01:42:22.578,0.66699,0.00464,-0.77271;
01:42:22.598,0.66772,0.00269,-0.77319;
01:42:22.618,0.66821,0.00049,-0.77295;
01:42:22.638,0.66772,0.00171,-0.77197;
01:42:22.658,0.66504,0.00122,-0.77344;
01:42:22.678,0.66602,0.00293,-0.77905;
01:42:22.698,0.66333,0.00317,-0.76636;
01:42:22.718,0.66211,0.00244,-0.76831;
01:42:22.738,0.66406,0.00024,-0.77783;
01:42:22.758,0.66528,-0.00488,-0.77661;
01:42:22.778,0.66870,-0.00269,-0.77808;
01:42:22.798,0.66992,0.00635,-0.77344;
01:42:22.818,0.67090,0.01880,-0.76758;
01:42:22.838,0.66260,0.01221,-0.77026;
01:42:22.858,0.65869,-0.00610,-0.77686;
01:42:22.878,0.65918,-0.01123,-0.77295;
01:42:22.898,0.66016,-0.00317,-0.77100;
01:42:22.918,0.66821,0.00513,-0.77026;
01:42:22.938,0.66748,0.00879,-0.77100;
01:42:22.958,0.66479,0.00879,-0.77515;
01:42:22.978,0.66553,0.00488,-0.77515;
01:42:22.998,0.66187,0.00391,-0.77930;
01:42:23.018,0.66064,0.00098,-0.78394;
01:42:23.038,0.65991,-0.00293,-0.77808;
01:42:23.058,0.66260,-0.00171,-0.77661;
01:42:23.078,0.66357,0.00439,-0.77612;
01:42:23.098,0.66211,0.00684,-0.77515;
01:42:23.118,0.66162,0.00244,-0.77612;
01:42:23.138,0.66113,0.00049,-0.77734;
01:42:23.158,0.66064,0.00293,-0.77466;
01:42:23.178,0.66187,0.00317,-0.77466;
01:42:23.198,0.66626,0.00391,-0.77246;
01:42:23.218,0.66699,0.00610,-0.77441;
01:42:23.238,0.66333,0.00342,-0.77759;
01:42:23.258,0.66064,0.00293,-0.77856;
01:42:23.278,0.66016,0.00342,-0.77734;
01:42:23.298,0.66187,0.00391,-0.77612;
01:42:23.318,0.66187,0.00488,-0.77563;
01:42:23.338,0.66309,0.00537,-0.77344;
01:42:23.358,0.66040,0.00439,-0.77295;
01:42:23.378,0.66333,0.00220,-0.77563;
01:42:23.398,0.66650,0.00098,-0.77905;
01:42:23.418,0.66357,0.00293,-0.77661;
01:42:23.438,0.66284,0.00732,-0.77563;
01:42:23.458,0.66284,0.00952,-0.77417;
01:42:23.478,0.66602,0.00635,-0.77319;
01:42:23.498,0.66235,0.00366,-0.77124;
01:42:23.518,0.66382,0.00244,-0.77930;
01:42:23.538,0.66089,0.00171,-0.76855;
01:42:23.558,0.65820,0.00024,-0.77026;
01:42:23.578,0.66162,-0.00171,-0.78638;
01:42:23.598,0.66943,0.00854,-0.77393;
01:42:23.618,0.66919,0.01636,-0.76294;
01:42:23.638,0.67065,0.01489,-0.76221;
01:42:23.658,0.66455,0.00415,-0.76978;
01:42:23.678,0.65649,-0.01025,-0.77612;
01:42:23.698,0.65698,-0.01416,-0.76929;
01:42:23.718,0.66479,-0.00439,-0.76831;
01:42:23.738,0.66602,0.00830,-0.76758;
01:42:23.758,0.66870,0.01270,-0.76953;
01:42:23.778,0.67261,0.01050,-0.77026;
01:42:23.798,0.66675,0.00757,-0.77051;
01:42:23.818,0.66382,0.00610,-0.77686;
01:42:23.838,0.66528,-0.00073,-0.77808;
01:42:23.858,0.66553,-0.00610,-0.77441;
01:42:23.878,0.66577,-0.00098,-0.77197;
01:42:23.898,0.66577,0.00610,-0.77002;
01:42:23.918,0.66895,0.00610,-0.77271;
01:42:23.938,0.66992,0.00293,-0.77173;
01:42:23.958,0.66846,0.00024,-0.76978;
01:42:23.978,0.66821,-0.00073,-0.76904;
01:42:23.998,0.66528,-0.00024,-0.76929;
01:42:24.018,0.66724,0.00122,-0.76978;
01:42:24.038,0.67017,0.00342,-0.77100;
01:42:24.058,0.67114,0.00488,-0.77148;
01:42:24.078,0.67065,0.00024,-0.77319;
01:42:24.098,0.66626,0.00000,-0.77222;
01:42:24.118,0.66821,0.00024,-0.77002;
01:42:24.138,0.66968,-0.00073,-0.77026;
01:42:24.158,0.67065,-0.00098,-0.77026;
01:42:24.178,0.67114,0.00098,-0.77026;
01:42:24.198,0.67114,0.00171,-0.77344;
01:42:24.218,0.66895,0.00073,-0.76782;
01:42:24.238,0.66968,0.00244,-0.76636;
01:42:24.258,0.67041,0.00195,-0.76416;
01:42:24.278,0.66846,-0.00049,-0.76880;
01:42:24.298,0.67261,-0.00391,-0.76953;
01:42:24.318,0.67261,-0.00439,-0.76514;
01:42:24.338,0.67139,-0.00122,-0.78174;
01:42:24.358,0.66919,0.00171,-0.78125;
01:42:24.378,0.66797,0.00659,-0.76929;
01:42:24.398,0.67725,0.00830,-0.76001;
01:42:24.418,0.68164,0.00293,-0.75562;
01:42:24.438,0.67603,-0.00513,-0.76270;
01:42:24.458,0.66650,-0.01538,-0.76611;
01:42:24.478,0.66113,-0.01636,-0.76416;
01:42:24.498,0.66895,-0.00439,-0.76270;
01:42:24.518,0.67505,0.00635,-0.76099;
01:42:24.538,0.67480,0.00806,-0.76416;
01:42:24.558,0.67603,0.00146,-0.76660;
01:42:24.578,0.67065,-0.00049,-0.77124;
01:42:24.598,0.67041,-0.00488,-0.77100;
01:42:24.618,0.67041,-0.00952,-0.76392;
01:42:24.638,0.67480,-0.00659,-0.76416;
01:42:24.658,0.67651,0.00146,-0.76953;
01:42:24.678,0.67529,0.00513,-0.76880;
01:42:24.698,0.67163,0.00220,-0.76587;
01:42:24.718,0.67139,-0.00220,-0.76587;
01:42:24.738,0.67114,-0.00562,-0.76587;
01:42:24.758,0.66895,-0.00513,-0.76514;
01:42:24.778,0.67383,-0.00220,-0.76807;
01:42:24.798,0.67554,0.00049,-0.76929;
01:42:24.818,0.67261,0.00171,-0.77222;
01:42:24.838,0.67163,-0.00122,-0.77148;
01:42:24.858,0.67163,-0.00171,-0.76733;
01:42:24.878,0.67017,-0.00122,-0.76929;
01:42:24.898,0.67261,-0.00293,-0.76660;
01:42:24.918,0.67163,-0.00317,-0.76782;
01:42:24.938,0.67188,-0.00146,-0.76855;
01:42:24.958,0.67041,0.00049,-0.76831;
01:42:24.978,0.66968,0.00024,-0.76587;
01:42:24.998,0.67285,-0.00098,-0.77026;
01:42:25.018,0.67188,0.00024,-0.76855;
01:42:25.038,0.66968,-0.00024,-0.77075;
01:42:25.058,0.67065,0.00317,-0.77148;
01:42:25.078,0.66748,-0.00122,-0.76465;
01:42:25.098,0.66577,-0.00171,-0.77319;
01:42:25.118,0.66675,-0.00098,-0.77856;
01:42:25.138,0.66821,-0.00122,-0.77271;
01:42:25.158,0.67383,0.00098,-0.76929;
01:42:25.178,0.67603,0.00610,-0.76270;
01:42:25.198,0.67432,0.00854,-0.76294;
01:42:25.218,0.66626,-0.00195,-0.77319;
01:42:25.238,0.66138,-0.01050,-0.77490;
01:42:25.258,0.66406,-0.00732,-0.77100;
01:42:25.278,0.66968,-0.00049,-0.76953;
01:42:25.298,0.66992,0.00635,-0.76514;
01:42:25.318,0.67065,0.00879,-0.76831;
01:42:25.338,0.67188,0.00659,-0.77075;
01:42:25.358,0.66919,0.00317,-0.77222;
01:42:25.378,0.66357,0.00098,-0.77832;
01:42:25.398,0.66260,-0.00195,-0.77881;
01:42:25.418,0.66602,-0.00488,-0.77319;
01:42:25.438,0.66772,-0.00098,-0.77173;
01:42:25.458,0.66675,0.00464,-0.77051;
01:42:25.478,0.66797,0.00537,-0.77246;
01:42:25.498,0.66748,0.00220,-0.77295;
01:42:25.518,0.66382,0.00000,-0.77271;
01:42:25.538,0.66846,0.00171,-0.77368;
01:42:25.558,0.67017,0.00391,-0.77246;
01:42:25.578,0.66699,0.00269,-0.77197;
01:42:25.598,0.66553,0.00195,-0.77222;
01:42:25.618,0.66602,0.00098,-0.77246;
01:42:25.638,0.66406,0.00122,-0.77295;
01:42:25.658,0.66479,0.00244,-0.77197;
01:42:25.678,0.66431,0.00293,-0.76978;
01:42:25.698,0.66553,0.00244,-0.77075;
01:42:25.718,0.66650,0.00220,-0.77563;
01:42:25.738,0.66650,0.00073,-0.77612;
01:42:25.758,0.66626,0.00342,-0.77490;
01:42:25.778,0.66211,0.00757,-0.77271;
01:42:25.798,0.66528,0.00610,-0.77588;
01:42:25.818,0.66479,0.00171,-0.77075;
01:42:25.838,0.66479,0.00244,-0.77637;
01:42:25.858,0.66455,0.00269,-0.77612;
01:42:25.878,0.65747,0.00366,-0.76318;
01:42:25.898,0.66016,0.00366,-0.77661;
01:42:25.918,0.66260,-0.00244,-0.78247;
01:42:25.938,0.66650,-0.00415,-0.77686;
01:42:25.958,0.66968,0.00391,-0.77417;
01:42:25.978,0.66626,0.01978,-0.76660;
01:42:25.998,0.66089,-0.00024,-0.77612;
01:42:26.018,0.65649,-0.01270,-0.77710;
01:42:26.038,0.65894,-0.00732,-0.77319;
01:42:26.058,0.66138,0.00342,-0.77173;
01:42:26.078,0.66357,0.00928,-0.77124;
01:42:26.098,0.66382,0.00171,-0.78174;
01:42:26.118,0.66260,-0.00317,-0.78247;
01:42:26.138,0.65942,0.00073,-0.78223;
01:42:26.158,0.66211,0.00708,-0.77612;
01:42:26.178,0.66382,0.00903,-0.77173;
01:42:26.198,0.66528,0.00537,-0.77661;
01:42:26.218,0.66260,0.00146,-0.77832;
01:42:26.238,0.66089,0.00122,-0.77637;
01:42:26.258,0.66064,0.00220,-0.77515;
01:42:26.278,0.65869,0.00342,-0.77466;
01:42:26.298,0.66406,0.00684,-0.77246;
01:42:26.318,0.66797,0.00708,-0.77441;
01:42:26.338,0.66699,0.00391,-0.77808;
01:42:26.358,0.66187,0.00342,-0.77637;
01:42:26.378,0.65845,0.00391,-0.77563;
01:42:26.398,0.65967,0.00342,-0.77710;
01:42:26.418,0.66528,0.00513,-0.77295;
01:42:26.438,0.66284,0.00684,-0.77100;
01:42:26.458,0.66333,0.00391,-0.77612;
01:42:26.478,0.66382,0.00146,-0.77515;
01:42:26.498,0.66357,0.00122,-0.77466;
01:42:26.518,0.66406,0.00391,-0.77539;
01:42:26.538,0.66528,0.00586,-0.77319;
01:42:26.558,0.66602,0.00244,-0.77466;
01:42:26.578,0.66406,0.00439,-0.77148;
01:42:26.598,0.66553,0.00513,-0.77490;
01:42:26.618,0.66333,0.00293,-0.76514;
01:42:26.638,0.66382,0.00073,-0.77441;
01:42:26.658,0.66382,-0.00146,-0.78833;
01:42:26.678,0.66479,0.00098,-0.78052;
01:42:26.698,0.67188,0.00879,-0.77368;
01:42:26.718,0.67261,0.01416,-0.76147;
01:42:26.738,0.67310,0.01050,-0.76245;
01:42:26.758,0.66699,-0.00195,-0.77124;
01:42:26.778,0.65820,-0.01416,-0.77344;
01:42:26.798,0.65942,-0.01025,-0.77197;
01:42:26.818,0.66504,0.00269,-0.77051;
01:42:26.838,0.66895,0.01147,-0.76782;
01:42:26.858,0.67188,0.01147,-0.76636;
01:42:26.878,0.67212,0.00830,-0.77197;
01:42:26.898,0.66846,-0.00439,-0.77759;
01:42:26.918,0.66846,-0.00684,-0.77075;
01:42:26.938,0.66821,0.00049,-0.77173;
01:42:26.958,0.66870,0.00732,-0.76758;
01:42:26.978,0.67163,0.00684,-0.77002;
01:42:26.998,0.67065,0.00146,-0.77222;
01:42:27.018,0.66821,-0.00171,-0.76489;
01:42:27.038,0.66748,-0.00146,-0.76440;
01:42:27.058,0.66626,-0.00098,-0.77075;
01:42:27.078,0.66919,-0.00049,-0.77100;
01:42:27.098,0.67090,0.00098,-0.76953;
01:42:27.118,0.67236,0.00244,-0.77246;
01:42:27.138,0.67065,0.00342,-0.77100;
01:42:27.158,0.66919,0.00317,-0.77002;
01:42:27.178,0.66992,0.00195,-0.76807;
01:42:27.198,0.67163,-0.00122,-0.77026;
01:42:27.218,0.67139,-0.00269,-0.76929;
01:42:27.238,0.67090,-0.00171,-0.76636;
01:42:27.258,0.67163,0.00049,-0.76880;
01:42:27.278,0.67212,0.00146,-0.76929;
01:42:27.298,0.67163,0.00171,-0.76831;
01:42:27.318,0.67236,0.00098,-0.76489;
01:42:27.338,0.67407,-0.00098,-0.76880;
01:42:27.358,0.67041,0.00024,-0.76392;
01:42:27.378,0.67456,0.00171,-0.76880;
01:42:27.398,0.67456,-0.00098,-0.76367;
01:42:27.418,0.67114,-0.00244,-0.76929;
01:42:27.438,0.67261,-0.00195,-0.77466;
01:42:27.458,0.67310,0.00195,-0.76929;
01:42:27.478,0.67407,0.00586,-0.75952;
01:42:27.498,0.67896,0.00635,-0.75464;
01:42:27.518,0.68164,0.00146,-0.75854;
01:42:27.538,0.67529,-0.00854,-0.76318;
01:42:27.558,0.66479,-0.01489,-0.76611;
01:42:27.578,0.66138,-0.00488,-0.76587;
01:42:27.598,0.67139,0.00464,-0.76440;
01:42:27.618,0.67383,0.00024,-0.76636;
01:42:27.638,0.68066,0.00244,-0.76514;
01:42:27.658,0.67578,0.00879,-0.76392;
01:42:27.678,0.66772,0.00830,-0.76807;
01:42:27.698,0.66675,-0.00098,-0.77075;
01:42:27.718,0.67432,-0.00659,-0.76440;
01:42:27.738,0.67700,-0.00464,-0.76587;
01:42:27.758,0.67065,0.00049,-0.76953;
01:42:27.778,0.67041,0.00146,-0.76831;
01:42:27.798,0.67236,-0.00195,-0.76782;
01:42:27.818,0.67285,-0.00098,-0.76733;
01:42:27.838,0.66821,0.00098,-0.76855;
01:42:27.858,0.66895,0.00171,-0.76831;
01:42:27.878,0.67212,-0.00073,-0.76953;
01:42:27.898,0.67725,-0.00244,-0.77197;
01:42:27.918,0.67212,-0.00122,-0.77441;
01:42:27.938,0.66309,0.00171,-0.77271;
01:42:27.958,0.66309,0.00244,-0.76880;
01:42:27.978,0.66772,-0.00317,-0.76758;
01:42:27.998,0.66919,-0.00879,-0.76929;
01:42:28.018,0.66772,-0.00635,-0.77148;
01:42:28.038,0.66602,-0.00366,-0.77515;
01:42:28.058,0.66821,0.00024,-0.77393;
01:42:28.078,0.67163,0.00293,-0.77075;
01:42:28.098,0.67114,0.00269,-0.76978;
01:42:28.118,0.66943,0.00244,-0.76978;
01:42:28.138,0.66528,0.00366,-0.76660;
01:42:28.158,0.66772,0.00171,-0.77393;
01:42:28.178,0.67041,-0.00391,-0.76831;
01:42:28.198,0.66479,-0.00269,-0.76660;
01:42:28.218,0.66187,-0.00049,-0.77979;
01:42:28.238,0.66284,-0.00171,-0.77979;
01:42:28.258,0.66772,-0.00366,-0.77539;
01:42:28.278,0.67383,0.00317,-0.76929;
01:42:28.298,0.67603,0.01489,-0.76636;
01:42:28.318,0.65552,-0.00952,-0.77783;
01:42:28.338,0.66602,-0.00830,-0.77197;
01:42:28.358,0.67163,-0.00366,-0.76733;
01:42:28.378,0.66968,0.00171,-0.76563;
01:42:28.398,0.66431,0.00830,-0.76978;
01:42:28.418,0.66455,0.01538,-0.76978;
01:42:28.438,0.66528,0.01367,-0.77197;
01:42:28.458,0.66504,0.00513,-0.78027;
01:42:28.478,0.66333,-0.00366,-0.77759;
01:42:28.498,0.66235,-0.00317,-0.77393;
01:42:28.518,0.66382,0.00195,-0.77563;
01:42:28.538,0.66431,0.00464,-0.77686;
01:42:28.558,0.66577,0.00562,-0.77295;
01:42:28.578,0.66626,0.00488,-0.77173;
01:42:28.598,0.66235,0.00635,-0.77539;
01:42:28.618,0.65967,0.00439,-0.77319;
01:42:28.638,0.66235,0.00244,-0.77246;
01:42:28.658,0.66675,0.00342,-0.77368;
01:42:28.678,0.66919,0.00317,-0.77344;
01:42:28.698,0.66309,0.00439,-0.77295;
01:42:28.718,0.65991,0.00610,-0.77344;
01:42:28.738,0.66382,0.00586,-0.77393;
01:42:28.758,0.66260,0.00659,-0.77368;
01:42:28.778,0.66431,0.00439,-0.77222;
01:42:28.798,0.66406,0.00391,-0.77710;
01:42:28.818,0.66357,0.00293,-0.77905;
01:42:28.838,0.66284,0.00562,-0.77856;
01:42:28.858,0.65991,0.00952,-0.77539;
01:42:28.878,0.66455,0.00659,-0.77637;
01:42:28.898,0.66138,0.00415,-0.77100;
01:42:28.918,0.66089,0.00439,-0.77930;
01:42:28.938,0.66309,0.00244,-0.77441;
01:42:28.958,0.65405,0.00732,-0.76392;
01:42:28.978,0.65918,0.00635,-0.77881;
01:42:28.998,0.66382,-0.00342,-0.78149;
01:42:29.018,0.66357,-0.00220,-0.77832;
01:42:29.038,0.66846,0.00977,-0.77539;
01:42:29.058,0.66846,0.02368,-0.76855;
01:42:29.078,0.66284,0.02222,-0.76831;
01:42:29.098,0.66064,0.00366,-0.77954;
01:42:29.118,0.65820,-0.00732,-0.77930;
01:42:29.138,0.65869,-0.00293,-0.77026;
01:42:29.158,0.65967,0.00415,-0.77295;
01:42:29.178,0.65967,0.00952,-0.77271;
01:42:29.198,0.66089,0.01050,-0.77124;
01:42:29.218,0.66187,0.01050,-0.77319;
01:42:29.238,0.66309,0.01001,-0.77563;
01:42:29.258,0.66284,0.00342,-0.77686;
01:42:29.278,0.66040,0.00952,-0.77148;
01:42:29.298,0.66187,0.01099,-0.77075;
01:42:29.318,0.66504,0.00537,-0.77539;
01:42:29.338,0.66284,0.00220,-0.77490;
01:42:29.358,0.66260,0.00195,-0.77393;
01:42:29.378,0.66113,0.00342,-0.77026;
01:42:29.398,0.66162,0.00659,-0.76904;
01:42:29.418,0.66699,0.00854,-0.77002;
01:42:29.438,0.66992,0.00952,-0.77026;
01:42:29.458,0.66821,0.00830,-0.77344;
01:42:29.478,0.66479,0.00610,-0.77246;
01:42:29.498,0.66333,0.00488,-0.77222;
01:42:29.518,0.66382,0.00391,-0.77368;
01:42:29.538,0.66431,0.00269,-0.77271;
01:42:29.558,0.66650,0.00342,-0.77173;
01:42:29.578,0.66772,0.00513,-0.77222;
01:42:29.598,0.67041,0.00562,-0.77612;
01:42:29.618,0.66919,0.00537,-0.77173;
01:42:29.638,0.66626,0.00781,-0.76636;
01:42:29.658,0.66553,0.00903,-0.76123;
01:42:29.678,0.66748,0.00488,-0.76855;
01:42:29.698,0.66992,-0.00098,-0.76733;
01:42:29.718,0.66748,0.00024,-0.78101;
01:42:29.738,0.66699,0.00586,-0.78027;
01:42:29.758,0.66797,0.01318,-0.77197;
01:42:29.778,0.67236,0.01465,-0.76343;
01:42:29.798,0.67627,0.01001,-0.76050;
01:42:29.818,0.67383,0.00195,-0.76685;
01:42:29.838,0.66235,-0.00879,-0.77124;
01:42:29.858,0.65991,-0.01245,-0.76782;
01:42:29.878,0.66724,-0.00293,-0.76587;
01:42:29.898,0.67017,0.00879,-0.76440;
01:42:29.918,0.67236,0.01343,-0.76392;
01:42:29.938,0.67578,0.01074,-0.76611;
01:42:29.958,0.67212,0.00757,-0.76587;
01:42:29.978,0.66724,0.00513,-0.77246;
01:42:29.998,0.66846,-0.00098,-0.77637;
01:42:30.018,0.66943,-0.00488,-0.76929;
01:42:30.038,0.67114,-0.00293,-0.77075;
01:42:30.058,0.67041,0.00439,-0.76953;
01:42:30.078,0.67261,0.00562,-0.76929;
01:42:30.098,0.67407,0.00342,-0.76685;
01:42:30.118,0.67212,0.00244,-0.76465;
01:42:30.138,0.67065,-0.00049,-0.76636;
01:42:30.158,0.66919,-0.00098,-0.76318;
01:42:30.178,0.67261,-0.00024,-0.76660;
01:42:30.198,0.67554,0.00293,-0.76831;
01:42:30.218,0.67065,0.00244,-0.76782;
01:42:30.238,0.67188,0.00073,-0.76807;
01:42:30.258,0.67285,-0.00073,-0.76782;
01:42:30.278,0.67261,-0.00220,-0.76563;
01:42:30.298,0.67310,-0.00049,-0.76392;
01:42:30.318,0.67285,0.00073,-0.76514;
01:42:30.338,0.67310,0.00073,-0.76709;
01:42:30.358,0.67261,0.00098,-0.76660;
01:42:30.378,0.67529,0.00171,-0.76880;
01:42:30.398,0.67285,0.00122,-0.76318;
01:42:30.418,0.67603,0.00098,-0.76733;
01:42:30.438,0.67383,-0.00122,-0.76270;
01:42:30.458,0.67017,-0.00098,-0.77148;
01:42:30.478,0.67163,0.00024,-0.77832;
01:42:30.498,0.67334,0.00171,-0.76904;
01:42:30.518,0.67700,0.00781,-0.76318;
01:42:30.538,0.68066,0.00903,-0.75708;
01:42:30.558,0.67822,0.00000,-0.76270;
01:42:30.578,0.66772,-0.00830,-0.77173;
01:42:30.598,0.66040,-0.01172,-0.77051;
01:42:30.618,0.66675,0.00488,-0.76294;
01:42:30.638,0.67651,0.01074,-0.76685;
01:42:30.658,0.67407,0.00635,-0.76904;
01:42:30.678,0.67017,0.00293,-0.76831;
01:42:30.698,0.66870,0.00024,-0.77393;
01:42:30.718,0.66968,-0.00610,-0.77368;
01:42:30.738,0.66968,-0.00659,-0.76855;
01:42:30.758,0.67212,0.00024,-0.76929;
01:42:30.778,0.67505,0.00488,-0.76855;
01:42:30.798,0.67188,0.00586,-0.77026;
01:42:30.818,0.66992,0.00439,-0.76685;
01:42:30.838,0.67041,0.00146,-0.76709;
01:42:30.858,0.66895,0.00049,-0.76953;
01:42:30.878,0.66870,0.00049,-0.76782;
01:42:30.898,0.67358,0.00049,-0.76807;
01:42:30.918,0.67456,0.00098,-0.77051;
01:42:30.938,0.66943,0.00073,-0.77100;
01:42:30.958,0.66943,0.00269,-0.76978;
01:42:30.978,0.67065,0.00269,-0.77051;
01:42:30.998,0.66943,0.00146,-0.77051;
01:42:31.018,0.67163,0.00195,-0.76953;
01:42:31.038,0.67090,0.00146,-0.76855;
01:42:31.058,0.66675,0.00342,-0.76758;
01:42:31.078,0.66846,0.00317,-0.77124;
01:42:31.098,0.66968,0.00171,-0.77197;
01:42:31.118,0.66895,0.00317,-0.77344;
01:42:31.138,0.67041,0.00244,-0.76904;
01:42:31.158,0.66772,0.00537,-0.76904;
01:42:31.178,0.66919,0.00586,-0.77344;
01:42:31.198,0.66357,0.00244,-0.76489;
01:42:31.218,0.66357,0.00171,-0.77246;
01:42:31.238,0.66577,-0.00073,-0.77759;
01:42:31.258,0.66724,-0.00293,-0.77588;
01:42:31.278,0.67139,0.00244,-0.77173;
01:42:31.298,0.67261,0.01416,-0.76318;
01:42:31.318,0.67188,0.01953,-0.76416;
01:42:31.338,0.66357,0.00708,-0.77124;
01:42:31.358,0.66089,-0.00708,-0.77368;
01:42:31.378,0.66406,-0.00732,-0.77222;
01:42:31.398,0.66577,0.00098,-0.76855;
01:42:31.418,0.66748,0.00708,-0.76831;
01:42:31.438,0.66699,0.01074,-0.76758;
01:42:31.458,0.66895,0.01025,-0.76831;
01:42:31.478,0.66797,0.00830,-0.77075;
01:42:31.498,0.66333,0.00757,-0.77539;
01:42:31.518,0.66309,0.00171,-0.77954;
01:42:31.538,0.66357,-0.00146,-0.77588;
01:42:31.558,0.66528,0.00122,-0.77246;
01:42:31.578,0.66455,0.01001,-0.77100;
01:42:31.598,0.66553,0.00537,-0.77051;
01:42:31.618,0.66553,0.00391,-0.77319;
01:42:31.638,0.66260,0.00464,-0.77417;
01:42:31.658,0.66187,0.00293,-0.77319;
01:42:31.678,0.66260,0.00513,-0.77271;
01:42:31.698,0.66895,0.00610,-0.77075;
01:42:31.718,0.66943,0.00488,-0.77319;
01:42:31.738,0.66211,0.00732,-0.77246;
01:42:31.758,0.66235,0.00610,-0.77197;
01:42:31.778,0.66235,0.00439,-0.77490;
01:42:31.798,0.66235,0.00464,-0.77441;
01:42:31.818,0.66431,0.00610,-0.77344;
01:42:31.838,0.66382,0.00659,-0.77222;
01:42:31.858,0.66406,0.00562,-0.77344;
01:42:31.878,0.66333,0.00610,-0.77246;
01:42:31.898,0.66235,0.00586,-0.77319;
01:42:31.918,0.66260,0.00586,-0.77271;
01:42:31.938,0.66382,0.00537,-0.77344;
01:42:31.958,0.66577,0.00342,-0.77661;
01:42:31.978,0.66553,0.00464,-0.77441;
01:42:31.998,0.66260,0.01001,-0.77271;
01:42:32.018,0.66357,0.00977,-0.77344;
01:42:32.038,0.66675,0.00439,-0.77295;
01:42:32.058,0.66333,0.00586,-0.77173;
01:42:32.078,0.65576,0.00781,-0.76953;
01:42:32.098,0.66211,0.00098,-0.78198;
01:42:32.118,0.66626,-0.00098,-0.77661;
01:42:32.138,0.66821,0.00708,-0.77295;
01:42:32.158,0.66870,0.01929,-0.76855;
01:42:32.178,0.66870,0.02539,-0.76440;
01:42:32.198,0.66260,0.00977,-0.77148;
01:42:32.218,0.65942,-0.00635,-0.78052;
01:42:32.238,0.65747,-0.00806,-0.77563;
01:42:32.258,0.65747,0.00171,-0.77075;
01:42:32.278,0.66235,0.01074,-0.76929;
01:42:32.298,0.66626,0.01465,-0.77148;
01:42:32.318,0.66528,0.01367,-0.77295;
01:42:32.338,0.66382,0.01025,-0.77271;
01:42:32.358,0.66553,0.00757,-0.77612;
01:42:32.378,0.66309,-0.00024,-0.78198;
01:42:32.398,0.65942,-0.00024,-0.78076;
01:42:32.418,0.66260,0.00781,-0.77441;
01:42:32.438,0.66406,0.01294,-0.76807;
01:42:32.458,0.66553,0.01147,-0.76978;
01:42:32.478,0.66553,0.00586,-0.77319;
01:42:32.498,0.66455,0.00342,-0.77319;
01:42:32.518,0.66162,0.00317,-0.77319;
01:42:32.538,0.65845,0.00586,-0.76953;
01:42:32.558,0.66895,0.01050,-0.77515;
01:42:32.578,0.66431,0.00781,-0.77466;
01:42:32.598,0.66260,0.00586,-0.77271;
01:42:32.618,0.66211,0.00513,-0.77368;
01:42:32.638,0.66260,0.00488,-0.77368;
01:42:32.658,0.66455,0.00415,-0.77246;
01:42:32.678,0.66602,0.00464,-0.77222;
01:42:32.698,0.66528,0.00830,-0.77246;
01:42:32.718,0.66479,0.00903,-0.76978;
01:42:32.738,0.66699,0.00684,-0.76953;
01:42:32.758,0.66724,0.00586,-0.77148;
01:42:32.778,0.66504,0.00439,-0.77197;
01:42:32.798,0.66602,0.00488,-0.77173;
01:42:32.818,0.66724,0.00562,-0.77368;
01:42:32.838,0.66772,0.00513,-0.77417;
01:42:32.858,0.66943,0.00757,-0.77100;
01:42:32.878,0.66748,0.00854,-0.76782;
01:42:32.898,0.66895,0.00562,-0.77148;
01:42:32.918,0.66748,0.00586,-0.76465;
01:42:32.938,0.66553,0.00610,-0.76831;
01:42:32.958,0.66895,0.00366,-0.76880;
01:42:32.978,0.66699,0.00293,-0.76294;
01:42:32.998,0.66699,0.00146,-0.78247;
01:42:33.018,0.66797,0.00244,-0.77075;
01:42:33.038,0.67822,0.01172,-0.75757;
01:42:33.058,0.67480,0.00342,-0.76563;
01:42:33.078,0.66406,-0.00684,-0.77075;
01:42:33.098,0.66187,-0.01172,-0.77051;
01:42:33.118,0.66724,-0.00195,-0.76929;
01:42:33.138,0.67114,0.01099,-0.76318;
01:42:33.158,0.67334,0.01294,-0.76245;
01:42:33.178,0.67383,0.01050,-0.76465;
01:42:33.198,0.67407,0.00781,-0.76807;
01:42:33.218,0.66895,0.00635,-0.77148;
01:42:33.238,0.66870,0.00146,-0.77271;
01:42:33.258,0.67017,-0.00439,-0.76953;
01:42:33.278,0.67090,-0.00146,-0.76953;
01:42:33.298,0.67090,0.00635,-0.76929;
01:42:33.318,0.67212,0.00928,-0.76782;
01:42:33.338,0.67334,0.00659,-0.76440;
01:42:33.358,0.67334,0.00366,-0.76416;
01:42:33.378,0.67529,0.00122,-0.76465;
01:42:33.398,0.67188,-0.00073,-0.76294;
01:42:33.418,0.67212,0.00073,-0.76514;
01:42:33.438,0.67456,0.00415,-0.76587;
01:42:33.458,0.67505,0.00342,-0.76953;
01:42:33.478,0.67358,0.00439,-0.76807;
01:42:33.498,0.67310,0.00195,-0.76660;
01:42:33.518,0.67358,0.00049,-0.76416;
01:42:33.538,0.67554,0.00000,-0.76587;
01:42:33.558,0.67578,0.00024,-0.76440;
01:42:33.578,0.67261,-0.00049,-0.76514;
01:42:33.598,0.67261,0.00024,-0.76587;
01:42:33.618,0.67554,0.00000,-0.76855;
01:42:33.638,0.67383,0.00122,-0.76514;
01:42:33.658,0.67285,0.00171,-0.76392;
01:42:33.678,0.67310,0.00171,-0.76465;
01:42:33.698,0.66992,0.00122,-0.76172;
01:42:33.718,0.67505,-0.00049,-0.76685;
01:42:33.738,0.67651,-0.00146,-0.76294;
01:42:33.758,0.67334,0.00024,-0.77026;
01:42:33.778,0.67261,0.00195,-0.77441;
01:42:33.798,0.67236,0.00488,-0.76660;
01:42:33.818,0.67847,0.00903,-0.76074;
01:42:33.838,0.68262,0.00464,-0.75708;
01:42:33.858,0.67700,-0.00244,-0.76196;
01:42:33.878,0.66748,-0.00806,-0.76685;
01:42:33.898,0.66504,-0.00854,-0.76929;
01:42:33.918,0.66968,-0.00220,-0.76587;
01:42:33.938,0.67432,0.00562,-0.76270;
01:42:33.958,0.67554,0.00854,-0.76440;
01:42:33.978,0.67554,0.00806,-0.76611;
01:42:33.998,0.67114,0.00366,-0.76831;
01:42:34.018,0.66846,-0.00098,-0.77563;
01:42:34.038,0.66992,-0.00586,-0.77271;
01:42:34.058,0.67188,-0.00366,-0.76587;
01:42:34.078,0.67456,0.00146,-0.76831;
01:42:34.098,0.67554,0.00537,-0.76587;
01:42:34.118,0.67358,0.00415,-0.76636;
01:42:34.138,0.67090,0.00293,-0.76538;
01:42:34.158,0.67114,0.00098,-0.76733;
01:42:34.178,0.66992,-0.00024,-0.76611;
01:42:34.198,0.67139,0.00049,-0.76538;
01:42:34.218,0.67383,0.00195,-0.76611;
01:42:34.238,0.67236,0.00366,-0.76929;
01:42:34.258,0.67017,0.00293,-0.77148;
01:42:34.278,0.67017,0.00195,-0.77026;
01:42:34.298,0.67065,0.00195,-0.77148;
01:42:34.318,0.67114,0.00049,-0.76904;
01:42:34.338,0.67114,0.00049,-0.76733;
01:42:34.358,0.67090,0.00171,-0.76978;
01:42:34.378,0.67017,0.00269,-0.77002;
01:42:34.398,0.66895,0.00415,-0.76660;
01:42:34.418,0.67163,0.00269,-0.76880;
01:42:34.438,0.67017,0.00024,-0.77075;
01:42:34.458,0.67017,0.00049,-0.77344;
01:42:34.478,0.66870,0.00269,-0.77100;
01:42:34.498,0.67041,0.00439,-0.76831;
01:42:34.518,0.66919,0.00635,-0.77246;
01:42:34.538,0.66968,0.00488,-0.77197;
01:42:34.558,0.66553,0.00269,-0.76196;
01:42:34.578,0.66382,0.00220,-0.77197;
01:42:34.598,0.66602,-0.00073,-0.77661;
01:42:34.618,0.67017,-0.00195,-0.77417;
01:42:34.638,0.67310,0.00293,-0.77124;
01:42:34.658,0.67383,0.01245,-0.76611;
01:42:34.678,0.67041,0.01880,-0.76538;
01:42:34.698,0.66357,0.00684,-0.77271;
01:42:34.718,0.66138,-0.00684,-0.77637;
01:42:34.738,0.66406,-0.00464,-0.77075;
01:42:34.758,0.66772,0.00952,-0.77319;
01:42:34.778,0.66602,0.00952,-0.77271;
01:42:34.798,0.66455,0.00659,-0.77563;
01:42:34.818,0.66431,0.00073,-0.78149;
01:42:34.838,0.66431,-0.00146,-0.77563;
01:42:34.858,0.66235,0.00220,-0.77173;
01:42:34.878,0.66333,0.00879,-0.77026;
01:42:34.898,0.66528,0.00928,-0.77173;
01:42:34.918,0.66455,0.00439,-0.77148;
01:42:34.938,0.66162,0.00586,-0.77222;
01:42:34.958,0.65942,0.00488,-0.77124;
01:42:34.978,0.66504,0.00391,-0.77368;
01:42:34.998,0.66772,0.00488,-0.77515;
01:42:35.018,0.66553,0.00537,-0.77441;
01:42:35.038,0.66162,0.00635,-0.77417;
01:42:35.058,0.66235,0.00586,-0.77490;
01:42:35.078,0.66187,0.00684,-0.77539;
01:42:35.098,0.66431,0.00635,-0.77319;
01:42:35.118,0.66260,0.00513,-0.77295;
01:42:35.138,0.66089,0.00488,-0.77246;
01:42:35.158,0.66406,0.00562,-0.77368;
01:42:35.178,0.66406,0.00513,-0.77686;
01:42:35.198,0.66406,0.00513,-0.77417;
01:42:35.218,0.66260,0.00977,-0.77417;
01:42:35.238,0.66333,0.00903,-0.77563;
01:42:35.258,0.66406,0.00366,-0.77222;
01:42:35.278,0.66138,0.00635,-0.77319;
01:42:35.298,0.66309,0.00488,-0.78003;
01:42:35.318,0.65918,0.00488,-0.76782;
01:42:35.338,0.65601,0.00903,-0.77124;
01:42:35.358,0.66260,0.00220,-0.78271;
01:42:35.378,0.66504,-0.00269,-0.78052;
01:42:35.398,0.66724,0.01831,-0.77197;
01:42:35.418,0.66577,0.02637,-0.76440;
01:42:35.438,0.66089,0.01074,-0.77222;
01:42:35.458,0.65747,-0.00708,-0.78125;
01:42:35.478,0.65991,-0.00879,-0.77417;
01:42:35.498,0.66040,-0.00024,-0.77026;
01:42:35.518,0.66162,0.01147,-0.76953;
01:42:35.538,0.66479,0.01563,-0.77124;
01:42:35.558,0.66431,0.01465,-0.77173;
01:42:35.578,0.66553,0.01196,-0.77197;
01:42:35.598,0.66382,0.00806,-0.77686;
01:42:35.618,0.66187,0.00293,-0.77930;
01:42:35.638,0.66089,0.00122,-0.77808;
01:42:35.658,0.66064,0.00464,-0.77661;
01:42:35.678,0.66162,0.01123,-0.76880;
01:42:35.698,0.66577,0.01221,-0.76782;
01:42:35.718,0.66675,0.00684,-0.77075;
01:42:35.738,0.66577,0.00366,-0.77222;
01:42:35.758,0.66309,0.00366,-0.77124;
01:42:35.778,0.65967,0.00586,-0.76929;
01:42:35.798,0.66333,0.00757,-0.77124;
01:42:35.818,0.66895,0.00854,-0.77026;
01:42:35.838,0.66943,0.00854,-0.77393;
01:42:35.858,0.66577,0.00781,-0.77368;
01:42:35.878,0.66602,0.00464,-0.77246;
01:42:35.898,0.66309,0.00488,-0.77002;
01:42:35.918,0.66431,0.00366,-0.77051;
01:42:35.938,0.66797,0.00317,-0.77222;
01:42:35.958,0.66772,0.00513,-0.77100;
01:42:35.978,0.66895,0.00684,-0.77441;
01:42:35.998,0.66772,0.00781,-0.76978;
01:42:36.018,0.66626,0.00854,-0.76636;
01:42:36.038,0.66650,0.00830,-0.76343;
01:42:36.058,0.66626,0.00488,-0.76758;
01:42:36.078,0.66895,0.00098,-0.77051;
01:42:36.098,0.66724,0.00122,-0.76367;
01:42:36.118,0.66748,0.00244,-0.77979;
01:42:36.138,0.66846,0.00513,-0.78125;
01:42:36.158,0.66870,0.00977,-0.77368;
01:42:36.178,0.67310,0.01489,-0.76392;
01:42:36.198,0.67749,0.01367,-0.75854;
01:42:36.218,0.67310,0.00439,-0.76440;
01:42:36.238,0.66333,-0.00659,-0.77002;
01:42:36.258,0.66113,-0.01172,-0.77002;
01:42:36.278,0.66479,-0.00293,-0.76904;
01:42:36.298,0.66992,0.01001,-0.76587;
01:42:36.318,0.67163,0.01465,-0.76294;
01:42:36.338,0.67407,0.01196,-0.76660;
01:42:36.358,0.67261,0.00806,-0.76904;
01:42:36.378,0.66675,-0.00366,-0.77222;
01:42:36.398,0.66846,-0.00171,-0.76807;
01:42:36.418,0.67261,0.00366,-0.76855;
01:42:36.438,0.67383,0.00806,-0.76978;
01:42:36.458,0.67261,0.00439,-0.76733;
01:42:36.478,0.67188,0.00220,-0.76392;
01:42:36.498,0.67212,0.00122,-0.76489;
01:42:36.518,0.67041,-0.00073,-0.76489;
01:42:36.538,0.67114,-0.00024,-0.76563;
01:42:36.558,0.67407,0.00171,-0.76831;
01:42:36.578,0.67480,0.00366,-0.77148;
01:42:36.598,0.67285,0.00342,-0.76880;
01:42:36.618,0.67163,0.00342,-0.76978;
01:42:36.638,0.67188,0.00220,-0.76733;
01:42:36.658,0.67334,-0.00024,-0.76514;
01:42:36.678,0.67261,-0.00098,-0.76514;
01:42:36.698,0.67383,-0.00146,-0.76514;
01:42:36.718,0.67334,-0.00122,-0.76782;
01:42:36.738,0.67383,0.00098,-0.77051;
01:42:36.758,0.67236,0.00317,-0.76514;
01:42:36.778,0.67285,0.00342,-0.76270;
01:42:36.798,0.67236,0.00098,-0.76343;
01:42:36.818,0.66943,0.00000,-0.76416;
01:42:36.838,0.67578,-0.00122,-0.76660;
01:42:36.858,0.67188,0.00269,-0.77661;
01:42:36.878,0.67285,0.00684,-0.76685;
01:42:36.898,0.67896,0.01025,-0.75952;
01:42:36.918,0.68140,0.00464,-0.75586;
01:42:36.938,0.67554,-0.00342,-0.76221;
01:42:36.958,0.66455,-0.00903,-0.76807;
01:42:36.978,0.66406,-0.00879,-0.76953;
01:42:36.998,0.67065,-0.00098,-0.76685;
01:42:37.018,0.67432,0.00830,-0.76270;
01:42:37.038,0.67480,0.01196,-0.76294;
01:42:37.058,0.67578,0.00952,-0.76636;
01:42:37.078,0.67700,0.00488,-0.76807;
01:42:37.098,0.67139,0.00195,-0.76953;
01:42:37.118,0.66699,-0.00122,-0.77441;
01:42:37.138,0.66846,-0.00586,-0.77344;
01:42:37.158,0.67090,-0.00439,-0.76807;
01:42:37.178,0.67383,0.00244,-0.76489;
01:42:37.198,0.67456,0.00757,-0.76733;
01:42:37.218,0.67358,0.00732,-0.76563;
01:42:37.238,0.67139,0.00513,-0.76392;
01:42:37.258,0.66992,0.00220,-0.76733;
01:42:37.278,0.66846,0.00098,-0.76782;
01:42:37.298,0.66919,-0.00024,-0.76733;
01:42:37.318,0.67236,0.00220,-0.76807;
01:42:37.338,0.66919,0.00293,-0.77051;
01:42:37.358,0.66968,0.00342,-0.77026;
01:42:37.378,0.67017,0.00317,-0.76855;
01:42:37.398,0.67041,0.00244,-0.76758;
01:42:37.418,0.66943,0.00269,-0.76904;
01:42:37.438,0.66919,0.00342,-0.76733;
01:42:37.458,0.67114,0.00342,-0.77051;
01:42:37.478,0.67163,0.00293,-0.77002;
01:42:37.498,0.67041,0.00269,-0.76831;
01:42:37.518,0.66968,0.00391,-0.76782;
01:42:37.538,0.67065,0.00244,-0.77246;
01:42:37.558,0.66895,0.00293,-0.76611;
01:42:37.578,0.66992,0.00562,-0.77124;
01:42:37.598,0.66992,0.00562,-0.76904;
01:42:37.618,0.66650,0.00439,-0.76050;
01:42:37.638,0.66650,0.00391,-0.77271;
01:42:37.658,0.66650,0.00000,-0.77612;
01:42:37.678,0.67017,-0.00171,-0.77100;
01:42:37.698,0.67407,0.00439,-0.76831;
01:42:37.718,0.67383,0.01440,-0.76465;
01:42:37.738,0.67090,0.01709,-0.76318;
01:42:37.758,0.66626,0.00269,-0.77344;
01:42:37.778,0.66357,-0.00830,-0.77563;
01:42:37.798,0.66699,0.00879,-0.76709;
01:42:37.818,0.66675,0.01196,-0.76807;
01:42:37.838,0.66846,0.01294,-0.77075;
01:42:37.858,0.66650,0.00952,-0.77075;
01:42:37.878,0.66504,0.00342,-0.77588;
01:42:37.898,0.66528,-0.00122,-0.77905;
01:42:37.918,0.66333,-0.00220,-0.77588;
01:42:37.938,0.66528,0.00513,-0.77197;
01:42:37.958,0.66528,0.01172,-0.76904;
01:42:37.978,0.66650,0.00977,-0.76904;
01:42:37.998,0.66577,0.00537,-0.77319;
01:42:38.018,0.66577,0.00562,-0.77124;
01:42:38.038,0.66309,0.00439,-0.76880;
01:42:38.058,0.66162,0.00317,-0.77075;
01:42:38.078,0.66748,0.00391,-0.77222;
01:42:38.098,0.66895,0.00586,-0.77271;
01:42:38.118,0.66602,0.00684,-0.77075;
01:42:38.138,0.66309,0.00757,-0.77344;
01:42:38.158,0.66309,0.00732,-0.77417;
01:42:38.178,0.66382,0.00488,-0.77295;
01:42:38.198,0.66382,0.00464,-0.77222;
01:42:38.218,0.66406,0.00562,-0.77148;
01:42:38.238,0.66064,0.00659,-0.77124;
01:42:38.258,0.66406,0.00439,-0.77539;
01:42:38.278,0.66577,0.00488,-0.77588;
01:42:38.298,0.66187,0.01001,-0.77441;
01:42:38.318,0.66284,0.01050,-0.77490;
01:42:38.338,0.66333,0.00488,-0.77075;
01:42:38.358,0.65894,0.00635,-0.77393;
01:42:38.378,0.66602,0.00586,-0.77856;
01:42:38.398,0.65967,0.00513,-0.76294;
01:42:38.418,0.65723,0.00879,-0.77148;
01:42:38.438,0.66284,0.00195,-0.78076;
01:42:38.458,0.66553,-0.00293,-0.77710;
01:42:38.478,0.66870,0.00488,-0.77612;
01:42:38.498,0.66821,0.02319,-0.76758;
01:42:38.518,0.66650,0.02954,-0.76636;
01:42:38.538,0.66113,0.00781,-0.77490;
01:42:38.558,0.65796,-0.00806,-0.77783;
01:42:38.578,0.65747,-0.00610,-0.77271;
01:42:38.598,0.66040,0.00415,-0.77075;
01:42:38.618,0.66333,0.01465,-0.76831;
01:42:38.638,0.66553,0.01660,-0.77173;
01:42:38.658,0.66333,0.01367,-0.77368;
01:42:38.678,0.66382,0.01050,-0.77124;
01:42:38.698,0.66357,0.00537,-0.77637;
01:42:38.718,0.65991,-0.00049,-0.78101;
01:42:38.738,0.65967,0.00244,-0.77466;
01:42:38.758,0.66748,0.01074,-0.77197;
01:42:38.778,0.66577,0.00659,-0.77368;
01:42:38.798,0.66113,0.00464,-0.77271;
01:42:38.818,0.66064,0.00317,-0.77271;
01:42:38.838,0.66211,0.00391,-0.77100;
01:42:38.858,0.66602,0.00513,-0.77148;
01:42:38.878,0.66968,0.00879,-0.77148;
01:42:38.898,0.66870,0.00977,-0.77173;
01:42:38.918,0.66309,0.00903,-0.77197;
01:42:38.938,0.66211,0.00684,-0.77344;
01:42:38.958,0.66357,0.00464,-0.77271;
01:42:38.978,0.66504,0.00537,-0.77319;
01:42:38.998,0.66577,0.00537,-0.77271;
01:42:39.018,0.66626,0.00586,-0.76782;
01:42:39.038,0.66528,0.00635,-0.76880;
01:42:39.058,0.66650,0.00537,-0.77466;
01:42:39.078,0.66504,0.00415,-0.77271;
01:42:39.098,0.66504,0.00659,-0.76636;
01:42:39.118,0.66406,0.00708,-0.76489;
01:42:39.138,0.67017,0.00586,-0.77148;
01:42:39.158,0.66821,0.00342,-0.77637;
01:42:39.178,0.66748,0.00732,-0.77197;
01:42:39.198,0.67139,0.01465,-0.76489;
01:42:39.218,0.67700,0.01733,-0.75391;
01:42:39.238,0.67603,0.00928,-0.75977;
01:42:39.258,0.66748,-0.00244,-0.77075;
01:42:39.278,0.65894,-0.01099,-0.77148;
01:42:39.298,0.66235,-0.00610,-0.76733;
01:42:39.318,0.66968,0.00610,-0.76636;
01:42:39.338,0.67065,0.01294,-0.76343;
01:42:39.358,0.67334,0.01343,-0.76514;
01:42:39.378,0.67505,0.01025,-0.76685;
01:42:39.398,0.66968,0.00781,-0.76782;
01:42:39.418,0.66772,0.00317,-0.77661;
01:42:39.438,0.66895,-0.00342,-0.77466;
01:42:39.458,0.66895,-0.00415,-0.76831;
01:42:39.478,0.67139,0.00171,-0.76953;
01:42:39.498,0.67090,0.00854,-0.76563;
01:42:39.518,0.67334,0.00781,-0.76733;
01:42:39.538,0.67358,0.00342,-0.76636;
01:42:39.558,0.67212,0.00171,-0.76367;
01:42:39.578,0.67090,0.00098,-0.76440;
01:42:39.598,0.66992,0.00049,-0.76294;
01:42:39.618,0.67407,0.00244,-0.76636;
01:42:39.638,0.67358,0.00391,-0.76880;
01:42:39.658,0.67236,0.00391,-0.76758;
01:42:39.678,0.66992,0.00293,-0.76782;
01:42:39.698,0.67212,0.00146,-0.76831;
01:42:39.718,0.67407,0.00049,-0.76563;
01:42:39.738,0.67456,0.00000,-0.76587;
01:42:39.758,0.67334,0.00171,-0.76465;
01:42:39.778,0.67480,0.00195,-0.76782;
01:42:39.798,0.67261,0.00220,-0.76709;
01:42:39.818,0.67139,0.00342,-0.76343;
01:42:39.838,0.67383,0.00293,-0.76343;
01:42:39.858,0.67090,0.00073,-0.76196;
01:42:39.878,0.67236,0.00073,-0.76758;
01:42:39.898,0.67529,-0.00122,-0.76245;
01:42:39.918,0.67285,0.00024,-0.76758;
01:42:39.938,0.67163,0.00317,-0.77686;
01:42:39.958,0.67261,0.00244,-0.77148;
01:42:39.978,0.67578,0.00732,-0.76416;
01:42:39.998,0.68140,0.00952,-0.75659;
01:42:40.018,0.67993,0.00049,-0.76147;
01:42:40.038,0.67041,-0.00854,-0.76440;
01:42:40.058,0.66284,-0.01196,-0.76538;
01:42:40.078,0.66895,-0.00415,-0.76636;
01:42:40.098,0.67456,0.00684,-0.76318;
01:42:40.118,0.67578,0.00928,-0.76221;
01:42:40.138,0.67773,0.00610,-0.76758;
01:42:40.158,0.67090,0.00439,-0.76758;
01:42:40.178,0.66772,0.00024,-0.77417;
01:42:40.198,0.66992,-0.00537,-0.77148;
01:42:40.218,0.67017,-0.00562,-0.76538;
01:42:40.238,0.67480,0.00024,-0.76489;
01:42:40.258,0.67700,0.00537,-0.76709;
01:42:40.278,0.67358,0.00562,-0.76611;
01:42:40.298,0.67114,0.00464,-0.76440;
01:42:40.318,0.67041,0.00195,-0.76782;
01:42:40.338,0.66821,0.00024,-0.76758;
01:42:40.358,0.66943,-0.00122,-0.76831;
01:42:40.378,0.67310,0.00073,-0.76904;
01:42:40.398,0.67358,0.00415,-0.76855;
01:42:40.418,0.67261,0.00439,-0.76782;
01:42:40.438,0.67114,0.00342,-0.76929;
01:42:40.458,0.67017,0.00171,-0.77002;
01:42:40.478,0.66870,0.00244,-0.76709;
01:42:40.498,0.67065,0.00269,-0.76855;
01:42:40.518,0.67188,0.00171,-0.76953;
01:42:40.538,0.67041,0.00342,-0.76831;
01:42:40.558,0.67090,0.00342,-0.76782;
01:42:40.578,0.67090,0.00391,-0.76709;
01:42:40.598,0.66992,0.00317,-0.77197;
01:42:40.618,0.66919,0.00000,-0.77197;
01:42:40.638,0.67090,0.00439,-0.77026;
01:42:40.658,0.67041,0.00366,-0.77173;
01:42:40.678,0.66870,0.00562,-0.76587;
01:42:40.698,0.66968,0.00537,-0.77173;
01:42:40.718,0.66992,0.00269,-0.77002;
01:42:40.738,0.66455,0.00146,-0.76172;
01:42:40.758,0.66479,0.00195,-0.77271;
01:42:40.778,0.66455,0.00000,-0.77612;
01:42:40.798,0.66943,-0.00122,-0.77661;
01:42:40.818,0.67456,0.00513,-0.77124;
01:42:40.838,0.67358,0.01611,-0.76465;
01:42:40.858,0.67041,0.01733,-0.76636;
01:42:40.878,0.66235,0.00293,-0.77295;
01:42:40.898,0.66016,-0.01001,-0.77148;
01:42:40.918,0.66113,-0.00562,-0.77002;
01:42:40.938,0.66602,0.00391,-0.76929;
01:42:40.958,0.66870,0.00781,-0.76587;
01:42:40.978,0.66797,0.01074,-0.76831;
01:42:40.998,0.66870,0.01270,-0.77075;
01:42:41.018,0.66528,0.01074,-0.77026;
01:42:41.038,0.66626,0.00366,-0.77710;
01:42:41.058,0.66528,-0.00171,-0.77979;
01:42:41.078,0.66309,-0.00122,-0.77563;
01:42:41.098,0.66577,0.00415,-0.77173;
01:42:41.118,0.66675,0.00757,-0.77075;
01:42:41.138,0.66821,0.00464,-0.77051;
01:42:41.158,0.66528,0.00513,-0.77124;
01:42:41.178,0.66187,0.00513,-0.77148;
01:42:41.198,0.66284,0.00366,-0.77051;
01:42:41.218,0.66699,0.00439,-0.77246;
01:42:41.238,0.66919,0.00537,-0.77295;
01:42:41.258,0.66650,0.00635,-0.77295;
01:42:41.278,0.66357,0.00464,-0.77441;
01:42:41.298,0.66357,0.00439,-0.77295;
01:42:41.318,0.66431,0.00464,-0.77466;
01:42:41.338,0.66504,0.00439,-0.77466;
01:42:41.358,0.66431,0.00537,-0.77246;
01:42:41.378,0.66357,0.00635,-0.77417;
01:42:41.398,0.66382,0.00806,-0.77222;
01:42:41.418,0.66382,0.00806,-0.77148;
01:42:41.438,0.66406,0.00732,-0.77368;
01:42:41.458,0.66479,0.00415,-0.77490;
01:42:41.478,0.66406,0.00562,-0.77393;
01:42:41.498,0.66309,0.00952,-0.77173;
01:42:41.518,0.66479,0.00610,-0.77563;
01:42:41.538,0.66260,0.00659,-0.77026;
01:42:41.558,0.66504,0.00659,-0.77856;
01:42:41.578,0.66284,0.00439,-0.77246;
01:42:41.598,0.65747,0.00903,-0.76294;
01:42:41.618,0.66089,0.00586,-0.77979;
01:42:41.638,0.66797,0.01074,-0.77319;
01:42:41.658,0.66821,0.02344,-0.76685;
01:42:41.678,0.66553,0.02100,-0.76489;
01:42:41.698,0.65845,0.00122,-0.77783;
01:42:41.718,0.65747,-0.00879,-0.77930;
01:42:41.738,0.65991,-0.00195,-0.77368;
01:42:41.758,0.66040,0.00928,-0.77246;
01:42:41.778,0.66455,0.01563,-0.76978;
01:42:41.798,0.66455,0.01440,-0.77319;
01:42:41.818,0.66382,0.01147,-0.77319;
01:42:41.838,0.66431,0.00781,-0.77417;
01:42:41.858,0.66187,0.00244,-0.78076;
01:42:41.878,0.66016,0.00000,-0.77930;
01:42:41.898,0.66064,0.00562,-0.77441;
01:42:41.918,0.66162,0.01392,-0.76807;
01:42:41.938,0.66455,0.01318,-0.76978;
01:42:41.958,0.66797,0.00757,-0.77563;
01:42:41.978,0.66455,0.00464,-0.77344;
01:42:41.998,0.66211,0.00391,-0.77368;
01:42:42.018,0.65942,0.00586,-0.77173;
01:42:42.038,0.66235,0.00806,-0.77075;
01:42:42.058,0.66846,0.01025,-0.77100;
01:42:42.078,0.66846,0.01050,-0.77197;
01:42:42.098,0.66724,0.00903,-0.77271;
01:42:42.118,0.66187,0.00757,-0.77148;
01:42:42.138,0.66382,0.00586,-0.77246;
01:42:42.158,0.66650,0.00513,-0.77344;
01:42:42.178,0.66895,0.00537,-0.77173;
01:42:42.198,0.66821,0.00830,-0.77075;
01:42:42.218,0.66577,0.01050,-0.76807;
01:42:42.238,0.66650,0.00757,-0.76660;
01:42:42.258,0.66870,0.00488,-0.77100;
01:42:42.278,0.66772,0.00342,-0.77075;
01:42:42.298,0.66675,0.00537,-0.77271;
01:42:42.318,0.66724,0.00977,-0.76929;
01:42:42.338,0.66797,0.00830,-0.76978;
01:42:42.358,0.66699,0.00635,-0.76782;
01:42:42.378,0.66479,0.00684,-0.76709;
01:42:42.398,0.66846,0.00415,-0.77148;
01:42:42.418,0.66675,0.00220,-0.76416;
01:42:42.438,0.66431,0.00122,-0.77734;
01:42:42.458,0.66748,0.00293,-0.78296;
01:42:42.478,0.67017,0.00830,-0.77319;
01:42:42.498,0.67163,0.01465,-0.76489;
01:42:42.518,0.67432,0.01489,-0.75879;
01:42:42.538,0.67603,0.00732,-0.76172;
01:42:42.558,0.66772,-0.00366,-0.77026;
01:42:42.578,0.65796,-0.01147,-0.77100;
01:42:42.598,0.67017,0.00757,-0.76367;
01:42:42.618,0.67261,0.01563,-0.76392;
01:42:42.638,0.67456,0.01270,-0.76685;
01:42:42.658,0.67456,0.00903,-0.76587;
01:42:42.678,0.66943,0.00928,-0.76758;
01:42:42.698,0.66748,0.00317,-0.77441;
01:42:42.718,0.66846,-0.00366,-0.77197;
01:42:42.738,0.66797,-0.00342,-0.76733;
01:42:42.758,0.66895,0.00439,-0.77051;
01:42:42.778,0.67090,0.00879,-0.76831;
01:42:42.798,0.67236,0.00732,-0.76807;
01:42:42.818,0.67236,0.00415,-0.76514;
01:42:42.838,0.67358,0.00146,-0.76343;
01:42:42.858,0.67114,0.00049,-0.76343;
01:42:42.878,0.66992,0.00171,-0.76440;
01:42:42.898,0.67407,0.00439,-0.76709;
01:42:42.918,0.67725,0.00439,-0.76855;
01:42:42.938,0.67407,0.00391,-0.76782;
01:42:42.958,0.67261,0.00391,-0.76978;
01:42:42.978,0.67261,0.00317,-0.76880;
01:42:42.998,0.67236,0.00195,-0.76685;
01:42:43.018,0.67261,0.00000,-0.76636;
01:42:43.038,0.67358,0.00000,-0.76636;
01:42:43.058,0.67407,0.00073,-0.76733;
01:42:43.078,0.67505,0.00171,-0.76855;
01:42:43.098,0.67188,0.00366,-0.76343;
01:42:43.118,0.67261,0.00293,-0.76147;
01:42:43.138,0.67285,-0.00049,-0.76245;
01:42:43.158,0.67578,-0.00073,-0.76733;
01:42:43.178,0.67407,-0.00024,-0.76001;
01:42:43.198,0.67261,0.00073,-0.77075;
01:42:43.218,0.67334,0.00269,-0.77368;
01:42:43.238,0.67383,0.00513,-0.76440;
01:42:43.258,0.67773,0.00830,-0.75781;
01:42:43.278,0.68311,0.00537,-0.75586;
01:42:43.298,0.67773,-0.00073,-0.76025;
01:42:43.318,0.66919,-0.00757,-0.76758;
01:42:43.338,0.66528,-0.00903,-0.76685;
01:42:43.358,0.67114,0.00049,-0.76123;
01:42:43.378,0.67700,0.00977,-0.75879;
01:42:43.398,0.67798,0.01245,-0.76074;
01:42:43.418,0.67896,0.00854,-0.76465;
01:42:43.438,0.67651,0.00293,-0.76563;
01:42:43.458,0.67236,0.00220,-0.76831;
01:42:43.478,0.67651,0.00562,-0.76465;
01:42:43.498,0.67749,0.00732,-0.76343;
01:42:43.518,0.67456,0.00513,-0.76343;
01:42:43.538,0.67212,0.00073,-0.76465;
01:42:43.558,0.67188,0.00024,-0.76416;
01:42:43.578,0.67334,0.00146,-0.76489;
01:42:43.598,0.67554,0.00439,-0.76660;
01:42:43.618,0.67578,0.00415,-0.76636;
01:42:43.638,0.67212,0.00293,-0.76880;
01:42:43.658,0.67041,0.00220,-0.76807;
01:42:43.678,0.67212,0.00195,-0.76807;
01:42:43.698,0.67163,0.00244,-0.76831;
01:42:43.718,0.67261,0.00220,-0.76733;
01:42:43.738,0.67236,0.00342,-0.76489;
01:42:43.758,0.67163,0.00342,-0.76514;
01:42:43.778,0.67212,0.00171,-0.77271;
01:42:43.798,0.67163,0.00098,-0.76929;
01:42:43.818,0.67236,0.00366,-0.76636;
01:42:43.838,0.66895,0.00684,-0.76563;
01:42:43.858,0.66846,0.00537,-0.76855;
01:42:43.878,0.67383,0.00146,-0.76392;
01:42:43.898,0.67212,0.00073,-0.76416;
01:42:43.918,0.66846,0.00415,-0.77148;
01:42:43.938,0.66846,0.00439,-0.77393;
01:42:43.958,0.67261,0.00586,-0.77100;
01:42:43.978,0.67480,0.01050,-0.76343;
01:42:43.998,0.67603,0.01270,-0.76147;
01:42:44.018,0.67114,0.00586,-0.76416;
01:42:44.038,0.66650,-0.00024,-0.76709;
01:42:44.058,0.66821,0.00659,-0.76807;
01:42:44.078,0.66919,0.01416,-0.76758;
01:42:44.098,0.67139,0.01660,-0.76855;
01:42:44.118,0.67114,0.01025,-0.77026;
01:42:44.138,0.66895,0.00708,-0.77100;
01:42:44.158,0.66626,0.00244,-0.77661;
01:42:44.178,0.66602,-0.00342,-0.77515;
01:42:44.198,0.66699,-0.00049,-0.76978;
01:42:44.218,0.67017,0.00781,-0.76831;
01:42:44.238,0.67114,0.00952,-0.76880;
01:42:44.258,0.66870,0.00757,-0.76587;
01:42:44.278,0.66992,0.00684,-0.76587;
01:42:44.298,0.66968,0.00464,-0.76978;
01:42:44.318,0.66357,0.00317,-0.77100;
01:42:44.338,0.66577,0.00439,-0.77173;
01:42:44.358,0.66968,0.00366,-0.77173;
01:42:44.378,0.66821,0.00562,-0.77124;
01:42:44.398,0.66528,0.00732,-0.77075;
01:42:44.418,0.66431,0.00659,-0.77148;
01:42:44.438,0.66626,0.00464,-0.77222;
01:42:44.458,0.66626,0.00293,-0.77441;
01:42:44.478,0.66479,0.00439,-0.77295;
01:42:44.498,0.66553,0.00537,-0.77075;
01:42:44.518,0.66626,0.00732,-0.77075;
01:42:44.538,0.66772,0.00513,-0.77222;
01:42:44.558,0.66553,0.00684,-0.77295;
01:42:44.578,0.66504,0.00903,-0.77246;
01:42:44.598,0.66577,0.00586,-0.77539;
01:42:44.618,0.66406,0.00635,-0.76685;
01:42:44.638,0.66675,0.00586,-0.77441;
01:42:44.658,0.66357,0.00488,-0.76929;
01:42:44.678,0.65967,0.00903,-0.76099;
01:42:44.698,0.66211,0.00659,-0.77686;
01:42:44.718,0.66528,-0.00122,-0.77661;
01:42:44.738,0.66846,-0.00098,-0.77515;
01:42:44.758,0.66821,0.00903,-0.77075;
01:42:44.778,0.66772,0.02246,-0.76465;
01:42:44.798,0.66357,0.01978,-0.76831;
01:42:44.818,0.66138,0.00244,-0.77417;
01:42:44.838,0.65991,-0.00732,-0.77563;
01:42:44.858,0.66064,0.00024,-0.77222;
01:42:44.878,0.66333,0.01001,-0.76807;
01:42:44.898,0.66724,0.01318,-0.76807;
01:42:44.918,0.66650,0.01294,-0.77100;
01:42:44.938,0.66455,0.01099,-0.77368;
01:42:44.958,0.66455,0.00977,-0.77466;
01:42:44.978,0.66284,0.00464,-0.77930;
01:42:44.998,0.66260,0.00122,-0.77490;
01:42:45.018,0.66382,0.01123,-0.77124;
01:42:45.038,0.66479,0.00757,-0.77515;
01:42:45.058,0.66211,0.00366,-0.77466;
01:42:45.078,0.66235,0.00464,-0.77393;
01:42:45.098,0.66040,0.00732,-0.77173;
01:42:45.118,0.66113,0.00781,-0.77173;
01:42:45.138,0.66626,0.00830,-0.77393;
01:42:45.158,0.66724,0.00854,-0.77295;
01:42:45.178,0.66504,0.00732,-0.77319;
01:42:45.198,0.66113,0.00610,-0.77466;
01:42:45.218,0.66040,0.00562,-0.77368;
01:42:45.238,0.66187,0.00684,-0.77271;
01:42:45.258,0.66382,0.00684,-0.77393;
01:42:45.278,0.66602,0.00635,-0.77539;
01:42:45.298,0.66675,0.00708,-0.77979;
01:42:45.318,0.66235,0.00903,-0.77539;
01:42:45.338,0.66113,0.01001,-0.77075;
01:42:45.358,0.66016,0.00879,-0.76929;
01:42:45.378,0.66187,0.00439,-0.77734;
01:42:45.398,0.66040,0.00244,-0.76733;
01:42:45.418,0.65674,0.00830,-0.76538;
01:42:45.438,0.66260,0.00952,-0.78101;
01:42:45.458,0.66626,0.00391,-0.78076;
01:42:45.478,0.66846,0.01050,-0.77808;
01:42:45.498,0.66821,0.02002,-0.76270;
01:42:45.518,0.66260,0.00928,-0.76831;
01:42:45.538,0.65723,-0.00244,-0.77417;
01:42:45.558,0.65894,-0.00903,-0.77173;
01:42:45.578,0.66455,-0.00293,-0.76855;
01:42:45.598,0.66333,0.01172,-0.76685;
01:42:45.618,0.66406,0.01953,-0.76733;
01:42:45.638,0.66821,0.01685,-0.77100;
01:42:45.658,0.66626,0.01221,-0.77222;
01:42:45.678,0.66284,0.00903,-0.77612;
01:42:45.698,0.66309,0.00293,-0.78076;
01:42:45.718,0.66357,-0.00073,-0.77734;
01:42:45.738,0.66406,0.00366,-0.77295;
01:42:45.758,0.66577,0.01147,-0.76709;
01:42:45.778,0.66919,0.01147,-0.76880;
01:42:45.798,0.66821,0.00610,-0.77222;
01:42:45.818,0.66504,0.00269,-0.76855;
01:42:45.838,0.66431,0.00244,-0.76978;
01:42:45.858,0.66504,0.00439,-0.76831;
01:42:45.878,0.66748,0.00757,-0.76611;
01:42:45.898,0.67090,0.00928,-0.76855;
01:42:45.918,0.67163,0.01001,-0.76904;
01:42:45.938,0.66870,0.00854,-0.77051;
01:42:45.958,0.66602,0.00684,-0.77124;
01:42:45.978,0.66504,0.00488,-0.77075;
01:42:45.998,0.66675,0.00366,-0.76978;
01:42:46.018,0.66846,0.00513,-0.76880;
01:42:46.038,0.66943,0.00659,-0.76807;
01:42:46.058,0.66846,0.00586,-0.76855;
01:42:46.078,0.66797,0.00610,-0.77100;
01:42:46.098,0.67163,0.00366,-0.76831;
01:42:46.118,0.67261,0.00439,-0.77051;
01:42:46.138,0.66846,0.00708,-0.76563;
01:42:46.158,0.67017,0.00610,-0.76733;
01:42:46.178,0.66968,0.00366,-0.76636;
01:42:46.198,0.66772,0.00464,-0.76489;
01:42:46.218,0.67456,0.00562,-0.77100;
01:42:46.238,0.67163,0.00171,-0.76392;
01:42:46.258,0.66895,0.00244,-0.77612;
01:42:46.278,0.66992,0.00464,-0.78125;
01:42:46.298,0.67065,0.00903,-0.76953;
01:42:46.318,0.67480,0.01221,-0.76172;
01:42:46.338,0.67920,0.01050,-0.75220;
01:42:46.358,0.67920,0.00415,-0.75928;
01:42:46.378,0.66748,-0.00659,-0.76978;
01:42:46.398,0.66138,-0.01196,-0.77026;
01:42:46.418,0.66650,-0.00244,-0.76611;
01:42:46.438,0.67285,0.00977,-0.75928;
01:42:46.458,0.67554,0.01318,-0.76221;
01:42:46.478,0.67651,0.01025,-0.76611;
01:42:46.498,0.67505,0.00708,-0.76733;
01:42:46.518,0.67188,-0.00635,-0.76685;
01:42:46.538,0.67310,-0.00464,-0.76465;
01:42:46.558,0.67456,0.00439,-0.76611;
01:42:46.578,0.67554,0.00806,-0.76685;
01:42:46.598,0.67505,0.00562,-0.76538;
01:42:46.618,0.67383,0.00244,-0.76294;
01:42:46.638,0.67383,-0.00024,-0.76343;
01:42:46.658,0.67261,-0.00098,-0.76440;
01:42:46.678,0.67432,0.00146,-0.76685;
01:42:46.698,0.67578,0.00391,-0.76660;
01:42:46.718,0.67456,0.00513,-0.76636;
01:42:46.738,0.67480,0.00342,-0.76611;
01:42:46.758,0.67358,0.00220,-0.76685;
01:42:46.778,0.67358,0.00146,-0.76636;
01:42:46.798,0.67456,0.00098,-0.76782;
01:42:46.818,0.67603,0.00098,-0.76685;
01:42:46.838,0.67822,0.00073,-0.76904;
01:42:46.858,0.67236,0.00366,-0.76587;
01:42:46.878,0.67065,0.00610,-0.76270;
01:42:46.898,0.67041,0.00415,-0.76294;
01:42:46.918,0.67163,-0.00122,-0.76489;
01:42:46.938,0.67725,-0.00317,-0.76660;
01:42:46.958,0.67358,0.00049,-0.76196;
01:42:46.978,0.67261,0.00537,-0.77295;
01:42:46.998,0.67407,0.00830,-0.76636;
01:42:47.018,0.67969,0.01147,-0.76074;
01:42:47.038,0.68042,0.00684,-0.75806;
01:42:47.058,0.67456,-0.00293,-0.76489;
01:42:47.078,0.66479,-0.01074,-0.76758;
01:42:47.098,0.66455,-0.00781,-0.76685;
01:42:47.118,0.67017,0.00220,-0.76489;
01:42:47.138,0.67505,0.00977,-0.76318;
01:42:47.158,0.67627,0.01343,-0.76587;
01:42:47.178,0.67700,0.01123,-0.76440;
01:42:47.198,0.67529,0.00708,-0.76587;
01:42:47.218,0.66992,0.00415,-0.77026;
01:42:47.238,0.66992,-0.00098,-0.77393;
01:42:47.258,0.66992,-0.00488,-0.77148;
01:42:47.278,0.67114,-0.00220,-0.76538;
01:42:47.298,0.67651,0.00562,-0.76270;
01:42:47.318,0.67627,0.00806,-0.76587;
01:42:47.338,0.67212,0.00513,-0.76587;
01:42:47.358,0.67065,0.00415,-0.76538;
01:42:47.378,0.67090,0.00464,-0.76660;
01:42:47.398,0.66895,0.00244,-0.76660;
01:42:47.418,0.67163,0.00244,-0.76807;
01:42:47.438,0.67432,0.00415,-0.76733;
01:42:47.458,0.67285,0.00439,-0.77075;
01:42:47.478,0.66968,0.00391,-0.76831;
01:42:47.498,0.66992,0.00269,-0.76831;
01:42:47.518,0.67017,0.00317,-0.76685;
01:42:47.538,0.67065,0.00537,-0.76636;
01:42:47.558,0.66992,0.00781,-0.76416;
01:42:47.578,0.67139,0.00439,-0.76636;
01:42:47.598,0.67065,0.00171,-0.76904;
01:42:47.618,0.67065,0.00293,-0.76904;
01:42:47.638,0.66968,0.00562,-0.76807;
01:42:47.658,0.66992,0.00684,-0.76831;
01:42:47.678,0.66992,0.00659,-0.76880;
01:42:47.698,0.66772,0.00708,-0.76611;
01:42:47.718,0.67114,0.00635,-0.76978;
01:42:47.738,0.66772,0.00342,-0.76270;
01:42:47.758,0.66504,0.00293,-0.76660;
01:42:47.778,0.66406,0.00195,-0.77588;
01:42:47.798,0.66748,-0.00098,-0.77295;
01:42:47.818,0.67456,0.00342,-0.76978;
01:42:47.838,0.66211,-0.00781,-0.77563;
01:42:47.858,0.66113,-0.00610,-0.77271;
01:42:47.878,0.66479,0.00293,-0.76782;
01:42:47.898,0.66821,0.00806,-0.76514;
01:42:47.918,0.66943,0.01270,-0.77124;
01:42:47.938,0.66797,0.00903,-0.77173;
01:42:47.958,0.66406,0.00757,-0.77271;
01:42:47.978,0.66357,0.00317,-0.77710;
01:42:47.998,0.66602,-0.00146,-0.77246;
01:42:48.018,0.66455,0.00293,-0.77075;
01:42:48.038,0.66382,0.01074,-0.76880;
01:42:48.058,0.66772,0.01172,-0.76978;
01:42:48.078,0.66772,0.00806,-0.77222;
01:42:48.098,0.66431,0.00562,-0.77148;
01:42:48.118,0.66455,0.00513,-0.77197;
01:42:48.138,0.66406,0.00391,-0.77051;
01:42:48.158,0.66431,0.00439,-0.77051;
01:42:48.178,0.66846,0.00586,-0.77026;
01:42:48.198,0.66748,0.00684,-0.77295;
01:42:48.218,0.66479,0.00781,-0.77173;
01:42:48.238,0.66431,0.00732,-0.77271;
01:42:48.258,0.66382,0.00562,-0.77197;
01:42:48.278,0.66284,0.00635,-0.77222;
01:42:48.298,0.66431,0.00635,-0.77222;
01:42:48.318,0.66479,0.00635,-0.77319;
01:42:48.338,0.66333,0.00757,-0.77222;
01:42:48.358,0.66357,0.00757,-0.77051;
01:42:48.378,0.66528,0.00610,-0.77441;
01:42:48.398,0.66626,0.00488,-0.77271;
01:42:48.418,0.66162,0.01221,-0.77271;
01:42:48.438,0.66626,0.00684,-0.77319;
01:42:48.458,0.66309,0.00610,-0.77051;
01:42:48.478,0.66431,0.00635,-0.78320;
01:42:48.498,0.66064,0.00464,-0.77100;
01:42:48.518,0.65649,0.00928,-0.76318;
01:42:48.538,0.66284,0.00659,-0.78076;
01:42:48.558,0.66479,-0.00244,-0.77832;
01:42:48.578,0.66919,0.00146,-0.77710;
01:42:48.598,0.66895,0.01538,-0.77222;
01:42:48.618,0.66602,0.02930,-0.76685;
01:42:48.638,0.66260,0.01636,-0.77051;
01:42:48.658,0.66016,-0.00366,-0.78003;
01:42:48.678,0.65869,-0.00537,-0.77612;
01:42:48.698,0.66040,0.00293,-0.76978;
01:42:48.718,0.66235,0.01343,-0.76855;
01:42:48.738,0.66577,0.01636,-0.76880;
01:42:48.758,0.66504,0.01318,-0.77393;
01:42:48.778,0.66455,0.01074,-0.77295;
01:42:48.798,0.66479,0.00879,-0.77490;
01:42:48.818,0.66138,0.00366,-0.77808;
01:42:48.838,0.66162,0.00415,-0.77783;
01:42:48.858,0.66235,0.01001,-0.77466;
01:42:48.878,0.66235,0.01514,-0.76904;
01:42:48.898,0.66528,0.01221,-0.77148;
01:42:48.918,0.66553,0.00391,-0.77344;
01:42:48.938,0.66016,0.00269,-0.77441;
01:42:48.958,0.65942,0.00610,-0.76978;
01:42:48.978,0.66333,0.01074,-0.76831;
01:42:48.998,0.66992,0.01343,-0.77100;
01:42:49.018,0.66943,0.01196,-0.76978;
01:42:49.038,0.66455,0.00952,-0.77417;
01:42:49.058,0.66455,0.00708,-0.77344;
01:42:49.078,0.66431,0.00781,-0.77002;
01:42:49.098,0.66357,0.00684,-0.77148;
01:42:49.118,0.66479,0.00610,-0.77197;
01:42:49.138,0.66553,0.00708,-0.77002;
01:42:49.158,0.66699,0.00757,-0.76953;
01:42:49.178,0.66626,0.00952,-0.76953;
01:42:49.198,0.66479,0.00952,-0.76709;
01:42:49.218,0.66675,0.00806,-0.76904;
01:42:49.238,0.66846,0.00513,-0.77393;
01:42:49.258,0.66602,0.00464,-0.77124;
01:42:49.278,0.66675,0.00806,-0.77197;
01:42:49.298,0.66846,0.00928,-0.76855;
01:42:49.318,0.67017,0.00806,-0.76807;
01:42:49.338,0.66577,0.00757,-0.76294;
01:42:49.358,0.66553,0.00830,-0.76733;
01:42:49.378,0.66968,0.00610,-0.76782;
01:42:49.398,0.66528,0.00317,-0.76416;
01:42:49.418,0.66772,0.00708,-0.78003;
01:42:49.438,0.66846,0.01294,-0.77075;
01:42:49.458,0.67310,0.01685,-0.76172;
01:42:49.478,0.67676,0.01538,-0.75708;
01:42:49.498,0.67407,0.00610,-0.76416;
01:42:49.518,0.66455,-0.00562,-0.77197;
01:42:49.538,0.65918,-0.00879,-0.77051;
01:42:49.558,0.66455,0.00195,-0.76807;
01:42:49.578,0.67090,0.01538,-0.76025;
01:42:49.598,0.67407,0.02026,-0.76147;
01:42:49.618,0.67578,0.01782,-0.76440;
01:42:49.638,0.67334,0.01367,-0.76294;
01:42:49.658,0.67041,0.00952,-0.77002;
01:42:49.678,0.66797,0.00000,-0.77319;
01:42:49.698,0.66772,-0.00586,-0.76978;
01:42:49.718,0.67114,-0.00122,-0.76807;
01:42:49.738,0.67285,0.00854,-0.76367;
01:42:49.758,0.67261,0.01270,-0.76465;
01:42:49.778,0.67310,0.00952,-0.76514;
01:42:49.798,0.67163,0.00659,-0.76221;
01:42:49.818,0.67261,0.00439,-0.76270;
01:42:49.838,0.67114,0.00098,-0.76318;
01:42:49.858,0.67188,0.00146,-0.76392;
01:42:49.878,0.67383,0.00586,-0.76270;
01:42:49.898,0.67334,0.00708,-0.76465;
01:42:49.918,0.67114,0.00562,-0.76563;
01:42:49.938,0.67163,0.00195,-0.76709;
01:42:49.958,0.67358,0.00122,-0.76587;
01:42:49.978,0.67407,0.00269,-0.76440;
01:42:49.998,0.67236,0.00488,-0.76367;
01:42:50.018,0.67090,0.00610,-0.76270;
01:42:50.038,0.67334,0.00415,-0.76416;
01:42:50.058,0.67334,0.00269,-0.76880;
01:42:50.078,0.67432,0.00366,-0.76709;
01:42:50.098,0.67456,0.00610,-0.76294;
01:42:50.118,0.67163,0.00732,-0.76294;
01:42:50.138,0.67529,0.00464,-0.76758;
01:42:50.158,0.67285,0.00220,-0.76392;
01:42:50.178,0.67139,0.00488,-0.76416;
01:42:50.198,0.67456,0.00464,-0.76709;
01:42:50.218,0.67090,0.00220,-0.76465;
01:42:50.238,0.67017,0.00391,-0.77539;
01:42:50.258,0.67163,0.00317,-0.77539;
01:42:50.278,0.67480,0.00708,-0.76270;
01:42:50.298,0.67871,0.01294,-0.75854;
01:42:50.318,0.67969,0.00830,-0.75732;
01:42:50.338,0.67334,-0.00073,-0.76563;
01:42:50.358,0.66357,-0.00708,-0.76855;
01:42:50.378,0.66382,0.00439,-0.76563;
01:42:50.398,0.67407,0.01147,-0.76074;
01:42:50.418,0.67456,0.01660,-0.76343;
01:42:50.438,0.67505,0.01318,-0.76514;
01:42:50.458,0.67310,0.00610,-0.76831;
01:42:50.478,0.66846,0.00439,-0.76978;
01:42:50.498,0.66772,0.00073,-0.77393;
01:42:50.518,0.66968,-0.00464,-0.77393;
01:42:50.538,0.67188,-0.00073,-0.77002;
01:42:50.558,0.67480,0.00806,-0.76563;
01:42:50.578,0.67456,0.01221,-0.76611;
01:42:50.598,0.67383,0.00830,-0.76514;
01:42:50.618,0.67139,0.00488,-0.76367;
01:42:50.638,0.66650,0.00464,-0.76392;
01:42:50.658,0.66504,0.00049,-0.76367;
01:42:50.678,0.66699,-0.00171,-0.76660;
01:42:50.698,0.67310,0.00171,-0.77197;
01:42:50.718,0.67383,0.00439,-0.77637;
01:42:50.738,0.66846,0.00659,-0.77466;
01:42:50.758,0.66748,0.00879,-0.77002;
01:42:50.778,0.66943,0.00781,-0.76636;
01:42:50.798,0.66772,0.00635,-0.76465;
01:42:50.818,0.66553,0.00366,-0.76343;
01:42:50.838,0.66895,-0.00146,-0.76318;
01:42:50.858,0.67188,-0.00342,-0.76514;
01:42:50.878,0.67188,0.00171,-0.77417;
01:42:50.898,0.66797,0.00684,-0.77612;
01:42:50.918,0.66528,0.01245,-0.77734;
01:42:50.938,0.66382,0.01099,-0.77539;
01:42:50.958,0.66113,0.00659,-0.77417;
01:42:50.978,0.66357,0.00366,-0.77417;
01:42:50.998,0.66699,-0.00073,-0.77173;
01:42:51.018,0.66577,0.00024,-0.76758;
01:42:51.038,0.67017,0.00146,-0.76904;
01:42:51.058,0.66895,-0.00049,-0.76416;
01:42:51.078,0.66504,0.00122,-0.76709;
01:42:51.098,0.66748,-0.00098,-0.77563;
01:42:51.118,0.66724,-0.00610,-0.77588;
01:42:51.138,0.66699,-0.00049,-0.77515;
01:42:51.158,0.66968,0.01294,-0.76782;
01:42:51.178,0.66968,0.02368,-0.76440;
01:42:51.198,0.66406,0.01831,-0.76929;
01:42:51.218,0.65796,-0.00049,-0.77881;
01:42:51.238,0.65723,-0.01123,-0.77368;
01:42:51.258,0.65918,-0.01025,-0.76880;
01:42:51.278,0.65991,-0.00220,-0.77197;
01:42:51.298,0.66040,0.00366,-0.77344;
01:42:51.318,0.66357,0.00366,-0.76929;
01:42:51.338,0.67041,0.00708,-0.77051;
01:42:51.358,0.67041,0.01685,-0.78711;
01:42:51.378,0.65479,0.00073,-0.77710;
01:42:51.398,0.65527,-0.00269,-0.77222;
01:42:51.418,0.65503,0.00464,-0.77197;
01:42:51.438,0.65723,0.00415,-0.77466;
01:42:51.458,0.65771,-0.00073,-0.77173;
01:42:51.478,0.66333,0.00024,-0.77466;
01:42:51.498,0.66382,0.00220,-0.77271;
01:42:51.518,0.65894,0.00513,-0.77173;
01:42:51.538,0.65894,0.00537,-0.77246;
01:42:51.558,0.66650,0.00684,-0.77612;
01:42:51.578,0.66162,0.00854,-0.77808;
01:42:51.598,0.65723,0.01294,-0.78223;
01:42:51.618,0.66089,0.01147,-0.77832;
01:42:51.638,0.66284,-0.00171,-0.78027;
01:42:51.658,0.66919,-0.00781,-0.77637;
01:42:51.678,0.67041,0.00073,-0.76733;
01:42:51.698,0.66846,0.00903,-0.76221;
01:42:51.718,0.67236,0.01196,-0.75537;
01:42:51.738,0.67114,0.01270,-0.75732;
01:42:51.758,0.66577,0.01367,-0.75854;
01:42:51.778,0.66235,0.00854,-0.76636;
01:42:51.798,0.65552,0.00488,-0.77637;
01:42:51.818,0.65088,0.01172,-0.78906;
01:42:51.838,0.64526,0.01245,-0.80347;
01:42:51.858,0.63623,0.00757,-0.80029;
01:42:51.878,0.63525,0.00391,-0.80273;
01:42:51.898,0.63940,0.00098,-0.79932;
01:42:51.918,0.63818,0.00537,-0.79102;
01:42:51.938,0.64941,0.00610,-0.79712;
01:42:51.958,0.66016,0.00293,-0.78345;
01:42:51.978,0.67285,0.01025,-0.75903;
01:42:51.998,0.68359,0.02490,-0.74072;
01:42:52.018,0.68774,0.04175,-0.73535;
01:42:52.038,0.68286,0.03760,-0.73975;
01:42:52.058,0.67358,0.00928,-0.75537;
01:42:52.078,0.66724,-0.01147,-0.75928;
01:42:52.098,0.66357,-0.01245,-0.76025;
01:42:52.118,0.65845,-0.00488,-0.77637;
01:42:52.138,0.64648,0.00195,-0.79272;
01:42:52.158,0.64038,0.01196,-0.80371;
01:42:52.178,0.63867,0.02417,-0.79858;
01:42:52.198,0.64526,0.02661,-0.79077;
01:42:52.218,0.65967,0.02319,-0.78442;
01:42:52.238,0.66089,0.02100,-0.77368;
01:42:52.258,0.67114,0.00195,-0.76538;
01:42:52.278,0.66113,0.00342,-0.77783;
01:42:52.298,0.66187,0.00537,-0.77148;
01:42:52.318,0.66528,0.00366,-0.77124;
01:42:52.338,0.66577,0.00684,-0.77319;
01:42:52.358,0.66284,0.01318,-0.76904;
01:42:52.378,0.65967,0.02173,-0.77051;
01:42:52.398,0.66089,0.02734,-0.76782;
01:42:52.418,0.66455,0.03076,-0.76440;
01:42:52.438,0.67017,0.02856,-0.76782;
01:42:52.458,0.67163,0.02539,-0.77002;
01:42:52.478,0.66992,0.01929,-0.77148;
01:42:52.498,0.66748,0.01025,-0.76611;
01:42:52.518,0.66626,-0.00098,-0.76929;
01:42:52.538,0.66455,-0.00659,-0.76831;
01:42:52.558,0.65796,-0.00049,-0.77002;
01:42:52.578,0.65820,0.01758,-0.77344;
01:42:52.598,0.65967,0.03101,-0.77100;
01:42:52.618,0.66504,0.02246,-0.77954;
01:42:52.638,0.66870,0.00391,-0.76978;
01:42:52.658,0.66479,-0.01343,-0.77075;
01:42:52.678,0.65649,-0.02148,-0.77271;
01:42:52.698,0.65137,-0.00928,-0.77539;
01:42:52.718,0.65454,0.01489,-0.77783;
01:42:52.738,0.66431,0.03955,-0.78394;
01:42:52.758,0.67114,0.02661,-0.76221;
01:42:52.778,0.67700,0.01782,-0.75220;
01:42:52.798,0.67944,0.00830,-0.74829;
01:42:52.818,0.68042,-0.00024,-0.75220;
01:42:52.838,0.67993,-0.00562,-0.75684;
01:42:52.858,0.68237,-0.00439,-0.76001;
01:42:52.878,0.67896,0.00220,-0.76416;
01:42:52.898,0.67334,0.00195,-0.77393;
01:42:52.918,0.67017,-0.00586,-0.77222;
01:42:52.938,0.66846,-0.01440,-0.76611;
01:42:52.958,0.66772,-0.01367,-0.76685;
01:42:52.978,0.66479,-0.00635,-0.76904;
01:42:52.998,0.65942,0.00049,-0.76440;
01:42:53.018,0.65918,0.00220,-0.76245;
01:42:53.038,0.66382,-0.00049,-0.76855;
01:42:53.058,0.66577,-0.00073,-0.76855;
01:42:53.078,0.67358,0.00488,-0.76392;
01:42:53.098,0.68213,0.00854,-0.75879;
01:42:53.118,0.68604,0.00830,-0.75659;
01:42:53.138,0.68408,0.01221,-0.75562;
01:42:53.158,0.68359,0.02026,-0.75781;
01:42:53.178,0.68433,0.02954,-0.76172;
01:42:53.198,0.68311,0.02710,-0.76440;
01:42:53.218,0.67114,-0.01245,-0.75781;
01:42:53.238,0.66138,-0.02002,-0.75244;
01:42:53.258,0.65576,-0.02417,-0.75708;
01:42:53.278,0.65186,-0.02222,-0.76270;
01:42:53.298,0.65088,-0.01099,-0.77026;
01:42:53.318,0.65576,-0.00024,-0.76929;
01:42:53.338,0.66064,0.00366,-0.76514;
01:42:53.358,0.67212,0.00415,-0.77393;
01:42:53.378,0.68115,0.00513,-0.77393;
01:42:53.398,0.68823,0.01318,-0.76392;
01:42:53.418,0.69800,0.01782,-0.75269;
01:42:53.438,0.70215,0.01025,-0.74780;
01:42:53.458,0.69385,-0.00073,-0.75122;
01:42:53.478,0.67871,-0.01025,-0.75464;
01:42:53.498,0.66992,-0.01147,-0.76099;
01:42:53.518,0.66992,-0.00146,-0.76440;
01:42:53.538,0.67163,0.00708,-0.75977;
01:42:53.558,0.66821,0.00586,-0.76074;
01:42:53.578,0.66406,0.00195,-0.76318;
01:42:53.598,0.66846,0.00317,-0.76685;
01:42:53.618,0.67114,0.00854,-0.77734;
01:42:53.638,0.67114,0.01172,-0.78613;
01:42:53.658,0.67310,0.01025,-0.78638;
01:42:53.678,0.67603,0.00171,-0.76099;
01:42:53.698,0.67554,-0.00439,-0.76392;
01:42:53.718,0.68115,-0.00122,-0.76758;
01:42:53.738,0.67969,0.00513,-0.76074;
01:42:53.758,0.67383,0.00122,-0.74756;
01:42:53.778,0.66846,-0.00879,-0.74512;
01:42:53.798,0.66235,-0.01709,-0.74976;
01:42:53.818,0.66089,-0.01782,-0.76782;
01:42:53.838,0.65771,-0.00537,-0.79199;
01:42:53.858,0.65991,0.01416,-0.79883;
01:42:53.878,0.66406,0.02930,-0.79736;
01:42:53.898,0.66772,0.03101,-0.78418;
01:42:53.918,0.67505,0.02002,-0.77441;
01:42:53.938,0.67676,0.00928,-0.76807;
01:42:53.958,0.67676,0.00415,-0.75610;
01:42:53.978,0.67627,0.00391,-0.74683;
01:42:53.998,0.67920,0.00293,-0.75220;
01:42:54.018,0.67822,0.00073,-0.75024;
01:42:54.038,0.67529,0.00195,-0.74756;
01:42:54.058,0.67432,0.00366,-0.76489;
01:42:54.078,0.67163,-0.00073,-0.77686;
01:42:54.098,0.66772,-0.00391,-0.78125;
01:42:54.118,0.66138,0.00195,-0.78638;
01:42:54.138,0.65625,0.01318,-0.77783;
01:42:54.158,0.65552,-0.00098,-0.78076;
01:42:54.178,0.66040,-0.00098,-0.77368;
01:42:54.198,0.66528,0.00244,-0.76611;
01:42:54.218,0.66895,0.00684,-0.76343;
01:42:54.238,0.67041,0.01050,-0.76270;
01:42:54.258,0.67456,0.01514,-0.76440;
01:42:54.278,0.67505,0.01880,-0.76514;
01:42:54.298,0.67334,0.01636,-0.76929;
01:42:54.318,0.67090,0.00757,-0.77222;
01:42:54.338,0.67114,0.00464,-0.76782;
01:42:54.358,0.66919,0.00977,-0.76367;
01:42:54.378,0.67017,0.01221,-0.76440;
01:42:54.398,0.66650,0.00879,-0.76611;
01:42:54.418,0.66235,0.00562,-0.77051;
01:42:54.438,0.66260,0.00659,-0.77100;
01:42:54.458,0.65894,0.00659,-0.77197;
01:42:54.478,0.65820,0.00439,-0.77466;
01:42:54.498,0.66064,0.00684,-0.77441;
01:42:54.518,0.66455,0.00830,-0.77539;
01:42:54.538,0.66333,0.00708,-0.77490;
01:42:54.558,0.66235,0.01001,-0.77222;
01:42:54.578,0.66260,0.01074,-0.77319;
01:42:54.598,0.66479,0.01025,-0.77173;
01:42:54.618,0.66650,0.01196,-0.76855;
01:42:54.638,0.66406,0.01538,-0.76050;
01:42:54.658,0.66528,0.01074,-0.77075;
01:42:54.678,0.66553,0.00244,-0.77026;
01:42:54.698,0.65991,0.00562,-0.76270;
01:42:54.718,0.66187,0.00854,-0.77271;
01:42:54.738,0.66406,0.00220,-0.78027;
01:42:54.758,0.66748,0.00244,-0.77710;
01:42:54.778,0.67041,0.01440,-0.77026;
01:42:54.798,0.66479,0.02979,-0.76929;
01:42:54.818,0.66357,0.02905,-0.76807;
01:42:54.838,0.65991,0.00732,-0.77759;
01:42:54.858,0.65674,-0.00464,-0.77881;
01:42:54.878,0.65967,-0.00171,-0.77173;
01:42:54.898,0.66040,0.00830,-0.76880;
01:42:54.918,0.66382,0.01514,-0.76758;
01:42:54.938,0.66699,0.01587,-0.77100;
01:42:54.958,0.66675,0.01367,-0.77026;
01:42:54.978,0.66675,0.01196,-0.77173;
01:42:54.998,0.66504,0.00708,-0.77905;
01:42:55.018,0.66284,0.00366,-0.77881;
01:42:55.038,0.66235,0.01221,-0.77100;
01:42:55.058,0.66284,0.01880,-0.76831;
01:42:55.078,0.66650,0.01050,-0.77319;
01:42:55.098,0.66406,0.00586,-0.77222;
01:42:55.118,0.66089,0.00342,-0.77393;
01:42:55.138,0.66016,0.00464,-0.77075;
01:42:55.158,0.65991,0.00928,-0.76611;
01:42:55.178,0.66479,0.01001,-0.77197;
01:42:55.198,0.66992,0.01172,-0.77124;
01:42:55.218,0.66699,0.01196,-0.77075;
01:42:55.238,0.66675,0.01123,-0.77100;
01:42:55.258,0.66357,0.00977,-0.76978;
01:42:55.278,0.66333,0.00732,-0.76929;
01:42:55.298,0.66455,0.00708,-0.77026;
01:42:55.318,0.66846,0.00684,-0.77734;
01:42:55.338,0.66772,0.00806,-0.77417;
01:42:55.358,0.66406,0.01343,-0.76807;
01:42:55.378,0.66382,0.01636,-0.76172;
01:42:55.398,0.66504,0.01489,-0.76807;
01:42:55.418,0.66797,0.00635,-0.77002;
01:42:55.438,0.66504,0.00122,-0.76807;
01:42:55.458,0.66309,0.00342,-0.78003;
01:42:55.478,0.66699,0.00806,-0.77881;
01:42:55.498,0.67041,0.01660,-0.76855;
01:42:55.518,0.67212,0.02417,-0.75952;
01:42:55.538,0.67603,0.02002,-0.75732;
01:42:55.558,0.67285,0.00684,-0.76367;
01:42:55.578,0.66772,0.00171,-0.76880;
01:42:55.598,0.67139,0.01270,-0.76270;
01:42:55.618,0.67139,0.01855,-0.76123;
01:42:55.638,0.67480,0.01807,-0.76392;
01:42:55.658,0.67310,0.01514,-0.76221;
01:42:55.678,0.67017,0.00977,-0.77222;
01:42:55.698,0.66870,0.00342,-0.77637;
01:42:55.718,0.66724,0.00146,-0.77100;
01:42:55.738,0.66919,0.00684,-0.76904;
01:42:55.758,0.66992,0.01465,-0.76416;
01:42:55.778,0.67236,0.01367,-0.76538;
01:42:55.798,0.67236,0.00781,-0.76440;
01:42:55.818,0.67212,0.00439,-0.76440;
01:42:55.838,0.67017,0.00391,-0.76392;
01:42:55.858,0.66943,0.00439,-0.76221;
01:42:55.878,0.67407,0.00488,-0.76587;
01:42:55.898,0.67456,0.00781,-0.76489;
01:42:55.918,0.67358,0.01147,-0.76465;
01:42:55.938,0.67188,0.01099,-0.76587;
01:42:55.958,0.67236,0.01074,-0.76392;
01:42:55.978,0.67432,0.00977,-0.76465;
01:42:55.998,0.67407,0.00732,-0.76465;
01:42:56.018,0.67358,0.00708,-0.76660;
01:42:56.038,0.67432,0.00610,-0.76538;
01:42:56.058,0.67334,0.00952,-0.76050;
01:42:56.078,0.67456,0.00977,-0.75952;
01:42:56.098,0.67334,0.00488,-0.76538;
01:42:56.118,0.66992,0.00195,-0.75977;
01:42:56.138,0.67505,0.00366,-0.76636;
01:42:56.158,0.67822,0.00513,-0.76343;
01:42:56.178,0.67285,0.00586,-0.76221;
01:42:56.198,0.67261,0.00635,-0.77490;
01:42:56.218,0.67432,0.00952,-0.76953;
01:42:56.238,0.67603,0.01416,-0.75928;
01:42:56.258,0.67993,0.01489,-0.75366;
01:42:56.278,0.68262,0.00830,-0.75562;
01:42:56.298,0.67529,-0.00171,-0.76221;
01:42:56.318,0.66431,-0.00903,-0.76660;
01:42:56.338,0.66748,-0.00439,-0.76221;
01:42:56.358,0.67651,0.00732,-0.75708;
01:42:56.378,0.67798,0.01538,-0.75659;
01:42:56.398,0.67676,0.01563,-0.76025;
01:42:56.418,0.67773,0.01147,-0.76074;
01:42:56.438,0.67554,0.00879,-0.76221;
01:42:56.458,0.66919,0.00513,-0.76978;
01:42:56.478,0.66992,0.00000,-0.77026;
01:42:56.498,0.67236,-0.00073,-0.76733;
01:42:56.518,0.67529,0.00635,-0.76270;
01:42:56.538,0.67603,0.00830,-0.76367;
01:42:56.558,0.67285,0.00415,-0.76318;
01:42:56.578,0.67627,0.00562,-0.76489;
01:42:56.598,0.67749,0.00830,-0.76660;
01:42:56.618,0.67505,0.00952,-0.76416;
01:42:56.638,0.67358,0.00781,-0.76685;
01:42:56.658,0.67261,0.00635,-0.76636;
01:42:56.678,0.67114,0.00464,-0.76636;
01:42:56.698,0.67505,0.00342,-0.76904;
01:42:56.718,0.67603,0.00269,-0.77100;
01:42:56.738,0.67139,0.00635,-0.76538;
01:42:56.758,0.66968,0.01294,-0.75952;
01:42:56.778,0.67017,0.01196,-0.75879;
01:42:56.798,0.67383,0.00269,-0.76685;
01:42:56.818,0.67578,-0.00122,-0.76294;
01:42:56.838,0.67090,0.00293,-0.76660;
01:42:56.858,0.66821,0.00684,-0.77563;
01:42:56.878,0.66992,0.00806,-0.77222;
01:42:56.898,0.67529,0.01245,-0.76611;
01:42:56.918,0.67944,0.01953,-0.75830;
01:42:56.938,0.67847,0.01636,-0.75854;
01:42:56.958,0.67065,0.00293,-0.76636;
01:42:56.978,0.66675,-0.00415,-0.76709;
01:42:56.998,0.67188,0.00439,-0.76416;
01:42:57.018,0.67139,0.01270,-0.76172;
01:42:57.038,0.67163,0.01587,-0.76563;
01:42:57.058,0.67334,0.01392,-0.76563;
01:42:57.078,0.66992,0.01318,-0.76587;
01:42:57.098,0.66675,0.01074,-0.77026;
01:42:57.118,0.66895,0.00293,-0.77563;
01:42:57.138,0.67090,0.00098,-0.77148;
01:42:57.158,0.67065,0.00708,-0.76685;
01:42:57.178,0.67139,0.01343,-0.76611;
01:42:57.198,0.67334,0.01172,-0.76538;
01:42:57.218,0.67163,0.00513,-0.76538;
01:42:57.238,0.66919,0.00586,-0.76758;
01:42:57.258,0.66602,0.00610,-0.76709;
01:42:57.278,0.66602,0.00562,-0.76782;
01:42:57.298,0.67163,0.00659,-0.76904;
01:42:57.318,0.67432,0.00806,-0.76831;
01:42:57.338,0.67114,0.01343,-0.76807;
01:42:57.358,0.66895,0.01440,-0.76709;
01:42:57.378,0.66895,0.01025,-0.76758;
01:42:57.398,0.66968,0.00977,-0.76660;
01:42:57.418,0.66968,0.00928,-0.76636;
01:42:57.438,0.66992,0.01001,-0.76733;
01:42:57.458,0.66846,0.01196,-0.76611;
01:42:57.478,0.66699,0.01074,-0.76709;
01:42:57.498,0.66675,0.01172,-0.76563;
01:42:57.518,0.66748,0.01123,-0.76831;
01:42:57.538,0.66968,0.00952,-0.76929;
01:42:57.558,0.67090,0.01074,-0.76782;
01:42:57.578,0.66724,0.01489,-0.76392;
01:42:57.598,0.67017,0.01440,-0.76904;
01:42:57.618,0.66821,0.01025,-0.76440;
01:42:57.638,0.66650,0.01123,-0.76855;
01:42:57.658,0.66724,0.01489,-0.76831;
01:42:57.678,0.65942,0.01636,-0.75732;
01:42:57.698,0.66211,0.01196,-0.77051;
01:42:57.718,0.66772,0.00415,-0.77612;
01:42:57.738,0.67261,0.00293,-0.77368;
01:42:57.758,0.67358,0.01318,-0.77051;
01:42:57.778,0.67041,0.03369,-0.76245;
01:42:57.798,0.66943,0.03882,-0.76074;
01:42:57.818,0.66357,0.01270,-0.77051;
01:42:57.838,0.66211,-0.00317,-0.77637;
01:42:57.858,0.66382,0.00146,-0.77124;
01:42:57.878,0.66675,0.01294,-0.76587;
01:42:57.898,0.66724,0.02026,-0.76245;
01:42:57.918,0.66553,0.02197,-0.76245;
01:42:57.938,0.66675,0.02295,-0.76514;
01:42:57.958,0.66650,0.02173,-0.76685;
01:42:57.978,0.66528,0.00903,-0.77661;
01:42:57.998,0.66528,0.00854,-0.77441;
01:42:58.018,0.66309,0.01489,-0.76855;
01:42:58.038,0.66211,0.02417,-0.76660;
01:42:58.058,0.66431,0.02124,-0.76831;
01:42:58.078,0.66357,0.01294,-0.76782;
01:42:58.098,0.66406,0.01245,-0.76953;
01:42:58.118,0.66528,0.01514,-0.76807;
01:42:58.138,0.66479,0.01465,-0.76416;
01:42:58.158,0.66675,0.01660,-0.76514;
01:42:58.178,0.66724,0.01587,-0.76733;
01:42:58.198,0.66650,0.01514,-0.77002;
01:42:58.218,0.66553,0.01636,-0.77026;
01:42:58.238,0.66382,0.01563,-0.76953;
01:42:58.258,0.66333,0.01514,-0.77075;
01:42:58.278,0.66553,0.01660,-0.76929;
01:42:58.298,0.66650,0.01709,-0.77124;
01:42:58.318,0.66528,0.01611,-0.77124;
01:42:58.338,0.66333,0.01709,-0.77100;
01:42:58.358,0.66357,0.01538,-0.76929;
01:42:58.378,0.66382,0.01440,-0.76563;
01:42:58.398,0.66675,0.01416,-0.76611;
01:42:58.418,0.66895,0.01221,-0.76831;
01:42:58.438,0.66895,0.01489,-0.76758;
01:42:58.458,0.66626,0.02295,-0.76563;
01:42:58.478,0.66797,0.02051,-0.77075;
01:42:58.498,0.66553,0.01807,-0.76318;
01:42:58.518,0.66675,0.01514,-0.77271;
01:42:58.538,0.66650,0.01270,-0.76636;
01:42:58.558,0.66040,0.01221,-0.75781;
01:42:58.578,0.66479,0.00854,-0.77930;
01:42:58.598,0.66479,0.00781,-0.77832;
01:42:58.618,0.66772,0.01758,-0.77344;
01:42:58.638,0.67163,0.03101,-0.76221;
01:42:58.658,0.67383,0.03345,-0.75684;
01:42:58.678,0.67358,0.02197,-0.76050;
01:42:58.698,0.66504,0.00684,-0.76855;
01:42:58.718,0.65845,-0.00024,-0.76953;
01:42:58.738,0.66333,0.00391,-0.76538;
01:42:58.758,0.66650,0.01440,-0.76465;
01:42:58.778,0.66748,0.02002,-0.76392;
01:42:58.798,0.67065,0.02148,-0.76416;
01:42:58.818,0.67285,0.02393,-0.76343;
01:42:58.838,0.66992,0.02417,-0.76660;
01:42:58.858,0.66772,0.01929,-0.76855;
01:42:58.878,0.66772,0.01318,-0.76831;
01:42:58.898,0.66357,0.01123,-0.76807;
01:42:58.918,0.66577,0.01611,-0.76318;
01:42:58.938,0.67236,0.02026,-0.76465;
01:42:58.958,0.67310,0.01758,-0.76465;
01:42:58.978,0.66797,0.01489,-0.76270;
01:42:58.998,0.66553,0.01392,-0.76294;
01:42:59.018,0.66382,0.01074,-0.76587;
01:42:59.038,0.66992,0.00781,-0.76611;
01:42:59.058,0.67456,0.01172,-0.76318;
01:42:59.078,0.67407,0.01758,-0.76465;
01:42:59.098,0.67358,0.01855,-0.76416;
01:42:59.118,0.67480,0.01245,-0.76538;
01:42:59.138,0.67383,0.01270,-0.76221;
01:42:59.158,0.67383,0.01758,-0.75928;
01:42:59.178,0.67334,0.01953,-0.76001;
01:42:59.198,0.67139,0.01563,-0.76074;
01:42:59.218,0.67212,0.00708,-0.76294;
01:42:59.238,0.67554,0.00562,-0.76318;
01:42:59.258,0.67285,0.00537,-0.76807;
01:42:59.278,0.66382,0.00537,-0.77148;
01:42:59.298,0.66748,0.00659,-0.76367;
01:42:59.318,0.67554,0.00659,-0.76636;
01:42:59.338,0.67285,0.01123,-0.76172;
01:42:59.358,0.67065,0.01489,-0.75659;
01:42:59.378,0.67700,0.01196,-0.76904;
01:42:59.398,0.67480,0.00977,-0.75903;
01:42:59.418,0.67090,0.00757,-0.76611;
01:42:59.438,0.67236,0.00903,-0.77075;
01:42:59.458,0.66943,0.00977,-0.76172;
01:42:59.478,0.69092,0.01929,-0.74951;
01:42:59.498,0.68774,0.02222,-0.74902;
01:42:59.518,0.67920,0.01685,-0.75781;
01:42:59.538,0.67627,0.00366,-0.76294;
01:42:59.558,0.67505,-0.00220,-0.76538;
